acc_x,acc_y,acc_z,acc_magnitude,acc_variance,temperature,temp_deviation,heart_rate,respiration_rate,activity_index,rumination_rate,hr_rolling_std,hr_rolling_range,activity_rolling_std,activity_rolling_range,movement_consistency,resp_hr_ratio,health_state,health_label
0.1386,1.098,9.9421,10.0035,0.145113,40.06,1.46,108.6,44.9,1.3687,11.8,12.9708,52.8,0.7073,2.6408,22.9729,0.414,2,Stressed
-0.0881,0.03,9.8645,9.8649,0.001662,40.66,2.06,103.3,65.2,0.1726,17.1,17.618,64.18,0.2716,1.1217,228.2869,0.6312,1,Sick
-0.0738,0.3962,9.6332,9.6417,0.073761,38.76,0.16,82.1,23.2,0.6468,56.3,7.6944,28.82,0.2653,1.1011,40.106,0.2824,0,Healthy
-0.0492,-0.0762,9.799,9.7994,0.001433,36.98,1.62,119.2,12.6,0.1364,21.8,13.2112,59.69,0.2643,1.2241,189.4533,0.1057,1,Sick
0.0182,0.0798,9.7261,9.7265,0.0038,39.87,1.27,74.7,12.9,0.1819,11.9,17.6811,64.44,0.3199,1.5428,160.9595,0.1726,1,Sick
-0.5812,0.7245,10.0002,10.0432,0.054051,39.92,1.32,85.6,46.3,1.4959,20.7,8.4498,30.68,0.7211,2.5887,21.1134,0.5415,2,Stressed
0.1816,0.2375,9.6764,9.681,0.02044,38.58,0.02,63.7,25.6,0.5527,58.6,7.4134,29.04,0.3024,1.3167,61.8635,0.402,0,Healthy
0.1973,0.2952,10.5086,10.5146,0.385164,39.25,0.65,100.1,39.5,1.1911,18.6,9.9841,43.46,0.7821,3.2298,17.8004,0.3948,2,Stressed
-0.4482,-0.824,10.0763,10.1199,0.138113,38.95,0.35,82.8,47.2,1.5385,9.5,11.2028,46.24,0.8119,3.5413,20.2033,0.5703,2,Stressed
0.2193,-0.0095,9.798,9.8005,0.015077,38.53,0.07,60.4,29.3,0.2408,71.2,5.2327,21.93,0.2819,1.0586,61.8952,0.4851,0,Healthy
0.0395,0.0197,9.7938,9.7939,0.001248,36.46,2.14,83.5,10.5,0.0754,10.5,18.7026,72.36,0.4762,1.8508,166.283,0.1255,1,Sick
0.9589,0.6236,10.0138,10.0789,0.077405,39.39,0.79,89.3,39.8,1.7862,22.5,10.2818,36.06,0.5967,2.174,22.9762,0.4458,2,Stressed
0.0273,1.0663,9.997,10.0537,0.065169,39.49,0.89,104.2,46.7,1.2805,24.4,11.5632,62.36,0.7121,2.7387,23.2569,0.448,2,Stressed
0.4624,0.5561,9.6171,9.6442,0.165328,39.21,0.61,93.3,40.6,1.2115,45.9,8.1505,34.32,0.7196,3.2314,28.0975,0.4353,2,Stressed
0.0227,-0.0441,9.8369,9.837,0.000697,39.98,1.38,113.2,12.8,0.0938,8.3,19.5026,92.03,0.2018,0.9576,241.8897,0.1128,1,Sick
-0.187,-1.1835,10.0592,10.1303,0.15913,38.82,0.22,116.3,41.4,1.6197,31.0,11.0221,42.89,0.7143,2.4244,20.0695,0.3558,2,Stressed
0.2957,-0.4489,10.1387,10.1529,0.063234,38.47,0.13,61.6,22.0,1.0733,58.9,7.8965,32.55,0.3158,1.3167,53.5633,0.3567,0,Healthy
-0.0403,0.0186,9.7895,9.7896,0.000121,38.23,0.37,47.0,14.5,0.0795,17.7,2.8732,12.44,0.0201,0.077,890.8323,0.3094,3,Inactive
0.0925,0.9885,10.081,10.1297,0.176597,38.84,0.24,101.8,44.9,1.3519,30.3,11.3126,55.67,0.81,3.2071,24.8573,0.4413,2,Stressed
-0.0077,-0.006,9.7985,9.7985,5.9e-05,37.65,0.95,51.8,14.1,0.0253,25.6,4.6444,17.65,0.018,0.069,1079.3654,0.2718,3,Inactive
0.0347,-0.0014,9.8082,9.8083,4.6e-05,37.89,0.71,46.4,14.3,0.0379,19.2,3.5438,12.67,0.0148,0.0605,882.5453,0.3091,3,Inactive
0.6065,0.2011,9.5158,9.5372,0.029778,38.89,0.29,63.1,19.8,1.1018,66.2,6.8619,30.12,0.3817,1.3906,44.4408,0.3139,0,Healthy
0.0329,-0.0338,9.7718,9.7719,0.002818,37.5,1.1,107.4,45.4,0.1049,22.8,14.2682,63.42,0.1716,0.7011,173.5704,0.4224,1,Sick
-0.0114,-0.0264,9.7859,9.786,0.000148,37.86,0.74,47.0,13.8,0.0618,19.7,3.9386,18.36,0.0206,0.0864,795.878,0.2939,3,Inactive
0.0485,0.0302,9.7974,9.7976,0.001978,40.36,1.76,124.3,11.8,0.0913,28.5,19.5246,85.97,0.3762,2.143,218.3145,0.0947,1,Sick
0.0267,-0.0052,9.8,9.8,0.000145,37.95,0.65,46.6,14.3,0.0419,15.3,3.1344,13.29,0.0189,0.0754,934.4454,0.307,3,Inactive
0.3397,0.4531,9.7416,9.758,0.069034,38.66,0.06,58.1,23.5,0.8612,54.3,8.1852,35.08,0.2761,1.3452,41.3402,0.4046,0,Healthy
0.0177,-0.0073,9.8181,9.8181,9.4e-05,37.7,0.9,40.6,13.5,0.033,25.2,4.398,20.58,0.0169,0.0744,1109.8723,0.3334,3,Inactive
0.133,1.1277,9.0445,9.1155,0.201399,39.24,0.64,91.8,41.1,2.0261,31.7,9.7195,41.34,0.8218,3.279,20.9987,0.4476,2,Stressed
-0.0073,0.0187,9.8016,9.8016,8.2e-05,37.63,0.97,53.5,15.0,0.0344,21.9,3.5679,15.99,0.0166,0.0589,818.03,0.2813,3,Inactive
0.4938,0.3579,9.5703,9.5897,0.015526,38.81,0.21,69.2,21.1,1.0913,60.8,7.5433,30.91,0.2894,1.2454,63.1794,0.3051,0,Healthy
-0.0448,0.0368,9.7593,9.7595,0.002607,40.7,2.1,99.1,47.8,0.1323,11.4,18.628,78.81,0.1572,0.8666,170.2014,0.4829,1,Sick
0.0593,0.0576,9.8382,9.8385,0.001635,40.16,1.56,86.0,39.6,0.1451,18.1,17.4379,76.45,0.1795,0.7166,161.5687,0.461,1,Sick
0.0482,-0.0276,9.8339,9.834,0.00219,40.01,1.41,79.6,13.8,0.0997,19.8,17.4122,69.62,0.3769,2.143,213.797,0.1737,1,Sick
0.0103,-0.0062,9.8042,9.8042,4.7e-05,37.85,0.75,49.2,12.2,0.0223,22.0,3.5192,13.67,0.0141,0.0537,925.7234,0.2481,3,Inactive
-0.4081,-0.6251,9.8207,9.849,0.002757,40.2,1.6,97.6,40.7,1.0438,14.4,17.9801,59.35,0.4442,1.6471,168.9954,0.4171,1,Sick
0.7169,-0.3654,11.0351,11.0644,0.211565,39.32,0.72,115.7,32.2,2.3074,21.2,9.5995,35.38,0.6907,3.0039,21.5382,0.2782,2,Stressed
0.6054,0.5694,9.7023,9.7378,0.031747,38.68,0.08,72.0,32.8,1.2825,60.7,7.1108,26.23,0.342,1.4899,46.0681,0.4553,0,Healthy
-0.0113,0.0103,9.8376,9.8377,0.001093,36.65,1.95,68.0,37.2,0.0492,18.4,17.8617,66.51,0.1636,0.7381,193.3726,0.5474,1,Sick
0.7688,-0.2941,10.0245,10.0582,0.197495,39.86,1.26,93.5,40.7,1.2774,12.8,10.1629,42.54,0.8224,4.0182,19.8413,0.4353,2,Stressed
0.3503,1.3685,9.3579,9.4639,0.211641,39.06,0.46,93.1,39.0,2.1709,34.3,11.8435,42.54,0.6055,2.1335,20.9791,0.4185,2,Stressed
-0.1535,0.1138,10.2889,10.2906,0.051582,38.33,0.27,61.5,17.9,0.7462,67.8,6.9053,26.4,0.3298,1.5656,43.496,0.2903,0,Healthy
0.0367,0.0001,9.8094,9.8095,0.000167,38.31,0.29,42.0,12.8,0.0374,19.5,4.1332,13.59,0.021,0.0814,832.2327,0.3057,3,Inactive
-0.3928,0.1085,9.7488,9.7573,0.04055,38.64,0.04,55.2,19.8,0.5624,58.6,6.7276,29.72,0.3377,1.2333,48.0905,0.3582,0,Healthy
-0.0032,0.0023,9.8077,9.8077,0.000128,38.0,0.6,47.8,13.0,0.0078,9.4,4.0277,19.19,0.019,0.0787,826.1293,0.2708,3,Inactive
0.2755,0.2023,9.8866,9.8925,0.053143,38.52,0.08,78.9,21.1,0.5544,58.1,7.0065,27.74,0.2626,0.9894,41.363,0.267,0,Healthy
-0.036,0.0044,9.809,9.809,0.002155,40.17,1.57,57.2,15.1,0.0414,14.8,18.7609,69.98,0.3251,1.4795,213.4146,0.2643,1,Sick
0.0077,0.0535,9.7629,9.7631,0.001513,40.73,2.13,104.0,9.8,0.1082,10.4,21.9432,87.16,0.1213,0.5074,212.139,0.094,1,Sick
0.5223,0.3168,9.9739,9.9926,0.069621,38.12,0.48,65.5,21.2,1.003,53.0,7.6257,38.36,0.3032,1.1758,41.6074,0.3239,0,Healthy
0.9199,0.0884,9.9012,9.9443,0.018502,38.81,0.21,59.1,26.1,1.0995,66.9,6.2164,24.32,0.3542,1.4101,48.5709,0.4406,0,Healthy
0.0931,-0.3784,9.8132,9.821,0.002522,40.36,1.76,99.9,12.8,0.4747,1.4,16.5649,67.25,0.1682,0.9055,218.6361,0.128,1,Sick
0.0302,-0.0178,9.8185,9.8186,0.00013,37.68,0.92,47.2,11.3,0.0565,18.7,3.2633,14.29,0.0182,0.0762,845.9149,0.239,3,Inactive
0.1022,0.0546,9.7609,9.7616,0.002749,41.01,2.41,102.0,6.5,0.2059,19.9,19.5969,85.66,0.3087,1.4168,184.3511,0.0636,1,Sick
0.0115,-0.0001,9.8211,9.8211,7.1e-05,38.22,0.38,44.7,14.5,0.0227,17.8,4.5015,16.08,0.0152,0.0654,818.7471,0.3249,3,Inactive
0.1077,-0.0565,9.7619,9.7627,0.002736,36.83,1.77,76.2,27.6,0.2122,15.2,18.8363,88.65,0.1844,0.8157,174.9485,0.3628,1,Sick
0.0238,0.0105,9.8044,9.8044,0.000106,37.66,0.94,45.5,15.4,0.04,29.1,4.8312,24.26,0.016,0.0742,780.455,0.3387,3,Inactive
-0.005,-0.0121,9.7887,9.7887,0.003528,40.92,2.32,77.6,43.9,0.0385,20.7,17.103,76.1,0.1424,0.6442,177.4636,0.566,1,Sick
0.0065,0.0054,9.8192,9.8192,5.2e-05,38.03,0.57,45.2,12.3,0.0212,18.9,3.6795,14.75,0.0137,0.0512,870.542,0.2712,3,Inactive
-0.0656,0.0769,9.7864,9.7869,0.001929,40.46,1.86,93.3,34.9,0.1661,20.7,22.0966,76.13,0.1278,0.6495,178.4376,0.3735,1,Sick
0.0533,-0.0591,9.8713,9.8716,0.000968,40.7,2.1,112.1,15.6,0.1736,24.3,17.6408,67.9,0.3163,1.3055,184.6175,0.1393,1,Sick
0.4839,0.5126,9.8054,9.8307,0.042851,39.11,0.51,70.8,21.3,1.0011,57.9,8.4654,40.15,0.3053,1.0925,48.5339,0.3013,0,Healthy
0.0062,-0.0211,9.8029,9.803,7.2e-05,37.95,0.65,54.0,12.0,0.0344,22.0,3.7312,11.91,0.0166,0.0682,1001.4873,0.2227,3,Inactive
-0.2086,0.8181,8.9548,8.9945,0.18131,39.35,0.75,95.6,36.0,1.882,24.5,8.7961,35.18,0.617,2.7854,21.4131,0.3768,2,Stressed
0.3258,-0.3519,9.8192,9.8309,0.012223,38.44,0.16,64.2,27.2,0.6869,55.9,7.6877,30.15,0.2647,1.1578,52.6593,0.4231,0,Healthy
-0.0761,-0.2991,9.9533,9.9581,0.025896,38.62,0.02,58.9,19.8,0.5184,68.1,6.7559,28.87,0.2327,1.0657,51.1004,0.3365,0,Healthy
0.0238,0.0076,9.8088,9.8088,0.000116,38.05,0.55,47.2,11.7,0.0326,35.6,3.7232,14.71,0.0141,0.0567,864.1172,0.2488,3,Inactive
0.0866,0.0524,9.8477,9.8483,0.002079,36.92,1.68,96.3,19.1,0.1767,15.4,18.5202,72.36,0.476,1.8508,164.1356,0.1978,1,Sick
0.0102,0.0197,9.791,9.791,9.4e-05,38.12,0.48,48.7,16.3,0.0489,24.2,3.5112,15.55,0.0141,0.057,1057.7882,0.335,3,Inactive
0.8861,0.383,9.4621,9.5112,0.158243,38.47,0.13,71.4,37.9,1.617,39.6,11.2451,48.83,0.5982,2.4143,22.2723,0.5308,2,Stressed
0.0058,0.0143,9.8469,9.8469,0.000823,40.36,1.76,89.8,11.2,0.0569,14.3,18.6611,63.97,0.32,1.728,230.5924,0.1248,1,Sick
0.5559,0.74,9.6082,9.6526,0.101886,39.81,1.21,111.5,39.1,1.4977,19.3,10.3341,42.88,0.6727,2.8983,23.4408,0.3506,2,Stressed
0.0461,0.3677,9.6801,9.6872,0.085097,38.86,0.26,73.6,18.0,0.5436,69.8,7.4382,27.29,0.2584,1.0351,41.4516,0.2446,0,Healthy
-0.0128,-0.0389,9.77,9.7701,0.001588,37.11,1.49,84.0,38.4,0.0917,7.2,21.7982,89.27,0.2239,0.9141,233.3648,0.4576,1,Sick
-0.2096,-0.0209,9.7714,9.7737,0.002876,41.07,2.47,86.5,43.6,0.2691,29.9,18.4497,78.47,0.1183,0.6288,207.0051,0.5037,1,Sick
-0.0427,0.0102,9.8285,9.8286,0.000842,40.36,1.76,100.7,51.2,0.0715,22.2,15.887,60.71,0.1054,0.4408,179.7048,0.5083,1,Sick
-0.0042,0.0121,9.8107,9.8107,8.4e-05,37.67,0.93,46.0,13.6,0.017,28.0,4.1832,17.65,0.016,0.0604,936.6805,0.2962,3,Inactive
-0.0511,0.1453,9.8102,9.8114,0.028908,38.98,0.38,63.7,15.9,0.1966,49.5,7.1875,36.44,0.3452,1.4734,48.7608,0.2496,0,Healthy
-1.2046,-0.0012,9.942,10.0147,0.091707,39.73,1.13,98.0,27.6,1.3378,43.6,7.6598,40.56,0.8149,3.071,21.7928,0.2813,2,Stressed
0.0037,-0.0043,9.795,9.795,9.1e-05,37.76,0.84,47.6,16.7,0.023,13.8,4.3109,17.33,0.0201,0.0799,1065.2732,0.3511,3,Inactive
0.2175,0.0615,10.2197,10.2222,0.027626,38.86,0.26,60.8,26.0,0.6888,65.0,5.1072,21.38,0.258,0.9497,59.5585,0.4277,0,Healthy
-0.0102,0.0024,9.7949,9.7949,7.2e-05,37.74,0.86,42.4,14.9,0.0277,23.0,4.2668,16.42,0.0163,0.0674,860.0319,0.3515,3,Inactive
-0.2397,0.1255,9.6667,9.6705,0.042208,38.38,0.22,70.9,19.5,0.5085,51.2,7.182,33.08,0.3006,1.1992,42.1426,0.275,0,Healthy
1.4174,0.4913,9.187,9.3087,0.223642,39.52,0.92,106.7,50.5,2.5316,33.0,12.3379,48.32,0.7125,3.0993,23.9243,0.4731,2,Stressed
0.08,0.0548,9.8756,9.8761,0.003373,40.3,1.7,83.0,13.7,0.2004,10.7,23.143,89.67,0.3126,1.4507,189.543,0.1651,1,Sick
0.5706,0.0352,10.1327,10.1488,0.306729,38.91,0.31,115.1,35.8,0.9285,36.0,9.4438,40.47,0.6127,2.7908,23.2457,0.3114,2,Stressed
0.0416,0.0542,9.7326,9.7329,0.003904,40.39,1.79,76.6,54.4,0.1731,25.8,14.4189,52.46,0.2135,1.2476,163.4425,0.7105,1,Sick
0.0569,0.0591,9.864,9.8643,0.002675,40.29,1.69,66.3,44.4,0.17,29.7,15.9806,71.53,0.2704,1.3914,182.2314,0.6699,1,Sick
-0.1077,0.0954,9.8099,9.8109,0.004034,37.61,0.99,93.9,56.5,0.2033,14.2,17.076,69.49,0.4306,1.7512,167.3276,0.6016,1,Sick
0.0234,0.0175,9.8069,9.8069,7.3e-05,37.75,0.85,46.7,12.9,0.0441,33.2,3.7541,15.94,0.0161,0.076,1018.1303,0.2752,3,Inactive
-0.0082,-0.0235,9.8057,9.8057,7.7e-05,37.86,0.74,41.1,16.7,0.036,24.5,3.7666,14.03,0.0144,0.0622,985.4928,0.4056,3,Inactive
-0.0191,0.4793,10.6328,10.6436,0.203646,39.16,0.56,103.4,35.9,1.3212,32.6,9.1805,40.73,0.6651,2.9449,21.6193,0.347,2,Stressed
0.0244,-0.0088,9.8259,9.826,0.000135,37.93,0.67,45.8,14.2,0.0491,27.7,3.9778,15.91,0.0159,0.0711,780.1086,0.3095,3,Inactive
-0.0145,0.0033,9.8069,9.8069,0.000154,38.04,0.56,49.8,13.8,0.0209,19.1,3.4814,16.0,0.0174,0.0657,915.9754,0.2776,3,Inactive
0.2244,0.3528,9.8249,9.8338,0.040055,38.51,0.09,59.1,16.9,0.5921,58.2,6.7282,26.91,0.3027,1.0993,44.0674,0.2861,0,Healthy
0.3917,-0.088,9.7854,9.7937,0.00333,40.06,1.46,69.8,16.9,0.5043,14.6,15.6086,53.83,0.2182,1.2476,159.4008,0.2413,1,Sick
0.163,0.0042,9.8634,9.8648,0.001874,37.16,1.44,94.7,29.7,0.2207,16.7,17.5883,83.27,0.2353,1.3515,267.6846,0.3138,1,Sick
-0.0171,-0.0004,9.8111,9.8111,4.2e-05,37.71,0.89,49.2,13.6,0.0186,19.8,3.7825,13.68,0.0161,0.0625,912.9411,0.2766,3,Inactive
-0.0013,-0.0014,9.8006,9.8006,0.00013,37.63,0.97,46.4,14.6,0.012,19.8,4.9929,22.01,0.019,0.0845,891.8063,0.314,3,Inactive
0.0171,-0.0189,9.7995,9.7996,0.000105,38.02,0.58,46.8,16.4,0.0464,37.2,4.4341,18.17,0.0189,0.0783,770.9314,0.3507,3,Inactive
0.5883,0.7837,9.5694,9.6194,0.316378,38.91,0.31,116.9,34.9,1.6127,12.7,8.5996,34.59,0.6666,2.9769,22.4775,0.2983,2,Stressed
0.3754,0.2351,9.8314,9.8414,0.021396,38.05,0.55,75.9,28.6,0.6319,70.1,8.1544,34.38,0.288,1.1737,59.7652,0.3772,0,Healthy
0.933,0.1647,9.6846,9.7308,0.175423,39.36,0.76,93.2,46.1,1.2231,16.9,8.9681,32.05,0.6649,2.3447,21.4236,0.4947,2,Stressed
0.0498,-0.0846,9.8252,9.8257,0.003107,40.64,2.04,45.2,32.1,0.1496,11.4,19.1627,79.27,0.4008,1.8249,154.2898,0.7088,1,Sick
-0.0024,0.0086,9.8067,9.8067,9.7e-05,38.16,0.44,44.1,16.1,0.0144,17.0,4.3046,15.74,0.0186,0.0819,988.244,0.3645,3,Inactive
0.8757,0.2607,9.6556,9.6987,0.19971,39.32,0.72,99.1,37.8,1.2908,32.6,8.2102,30.01,0.5698,2.1687,23.6976,0.3813,2,Stressed
0.005,0.1579,9.7868,9.7881,0.020702,38.92,0.32,69.6,27.2,0.1861,56.5,6.411,26.67,0.3386,1.2584,43.9093,0.3907,0,Healthy
0.3041,0.183,10.1967,10.2028,0.062092,38.59,0.01,69.4,20.8,0.8738,58.9,6.9509,29.4,0.2401,0.9912,41.197,0.3005,0,Healthy
0.034,0.0112,9.8054,9.8055,0.000148,38.2,0.4,46.4,14.2,0.0498,24.1,3.4133,12.33,0.0221,0.1079,854.4909,0.3069,3,Inactive
0.0004,0.0183,9.8062,9.8063,0.000139,38.03,0.57,53.0,11.1,0.0224,22.8,4.5795,17.56,0.0116,0.0459,886.9682,0.2095,3,Inactive
0.5158,-0.0646,9.6901,9.704,0.050486,38.32,0.28,62.3,23.9,0.7004,53.5,7.2445,29.8,0.2509,0.9595,42.3922,0.3832,0,Healthy
0.1139,0.1151,10.3499,10.3512,0.334404,39.7,1.1,118.7,33.6,0.7689,18.9,10.5108,37.75,0.7416,3.2352,23.6353,0.2834,2,Stressed
0.0896,-0.0631,10.1482,10.1488,0.093776,39.84,1.24,75.8,48.6,0.4909,47.2,10.1465,36.51,0.7042,2.3955,24.9661,0.6407,2,Stressed
-0.0161,-0.0284,9.9032,9.9033,0.002477,40.23,1.63,68.2,11.1,0.1377,5.2,20.0492,92.03,0.2627,1.0965,205.1732,0.1626,1,Sick
-0.0579,0.2117,9.8521,9.8545,0.016689,38.9,0.3,67.2,27.0,0.3117,49.4,5.2633,20.77,0.3092,1.5809,59.1718,0.4011,0,Healthy
-0.0307,-0.0076,9.8063,9.8064,6.3e-05,37.77,0.83,52.8,14.3,0.042,24.5,4.1331,17.16,0.0139,0.0478,1073.022,0.2712,3,Inactive
0.0763,-0.0765,9.7905,9.7911,0.001928,40.49,1.89,90.8,47.7,0.1723,15.6,16.2312,51.23,0.2007,1.1228,191.8169,0.5254,1,Sick
0.0553,0.0091,9.8026,9.8028,5.3e-05,37.96,0.64,49.3,13.9,0.0717,29.2,4.533,18.66,0.0195,0.0689,980.2971,0.2822,3,Inactive
-0.1803,0.5544,9.7462,9.7637,0.019051,38.55,0.05,71.5,28.5,0.7985,61.5,7.2003,27.49,0.2839,1.1737,59.7742,0.3985,0,Healthy
-0.3419,0.4266,9.7197,9.7351,0.030361,38.49,0.11,58.6,24.8,0.8588,55.5,7.1909,29.8,0.232,0.8563,45.3849,0.4236,0,Healthy
0.0595,0.0738,9.8898,9.8903,0.003916,36.84,1.76,62.6,48.5,0.2131,2.4,14.2997,50.98,0.2329,1.0331,176.3452,0.7745,1,Sick
0.6068,1.0166,10.7356,10.8007,0.145616,39.58,0.98,96.2,34.6,2.549,54.5,8.4049,30.99,0.7658,2.7572,28.5813,0.3601,2,Stressed
0.1968,0.004,9.84,9.8419,0.001365,36.93,1.67,118.2,16.4,0.2308,27.2,20.1562,71.56,0.2211,1.2599,232.6655,0.1389,1,Sick
-0.0033,0.0069,9.8178,9.8179,5.5e-05,38.02,0.58,54.3,12.9,0.018,16.5,4.0886,15.91,0.0154,0.0662,873.7792,0.2383,3,Inactive
-0.532,0.017,9.2596,9.2749,0.381474,39.49,0.89,94.0,34.3,1.0993,41.9,12.5198,40.61,0.5965,2.7685,20.4454,0.3644,2,Stressed
0.0107,-0.0605,9.8986,9.8988,0.002625,36.69,1.91,118.2,8.6,0.1598,12.7,19.3999,75.58,0.5159,1.6471,174.3073,0.0731,1,Sick
0.0303,-0.0035,9.8159,9.816,0.003087,41.09,2.49,69.9,41.4,0.0397,14.8,15.8964,64.18,0.3185,1.4051,201.1794,0.5926,1,Sick
0.1008,-0.0617,9.7448,9.7455,0.002665,40.33,1.73,103.2,14.6,0.2277,13.8,13.6743,70.78,0.3403,1.4708,209.9269,0.1414,1,Sick
-0.0075,0.0252,9.7245,9.7245,0.003587,37.19,1.41,93.4,42.4,0.1182,23.5,17.7919,87.42,0.3093,1.0415,163.6544,0.4544,1,Sick
-0.0238,0.0046,9.8195,9.8195,9.2e-05,37.76,0.84,46.0,17.8,0.0379,27.9,4.3838,16.93,0.0183,0.0674,894.5219,0.3875,3,Inactive
0.2725,0.0294,9.9142,9.9179,0.047902,38.57,0.03,71.0,21.2,0.406,63.3,6.4847,25.83,0.3242,1.1614,46.7357,0.2983,0,Healthy
1.1223,0.5672,9.9091,9.9886,0.170931,38.9,0.3,101.0,48.0,1.7887,22.3,9.8248,46.38,0.8519,3.0637,25.1636,0.4753,2,Stressed
-0.038,-0.0515,9.8041,9.8043,0.000686,40.2,1.6,93.8,14.7,0.0954,13.7,14.0439,53.82,0.2595,1.2335,193.696,0.1565,1,Sick
0.2515,0.0365,9.8371,9.8404,0.040472,38.53,0.07,58.3,28.3,0.3152,66.0,6.2325,23.97,0.3093,1.1362,45.5202,0.4859,0,Healthy
0.4134,0.2885,10.6249,10.6369,0.159228,39.46,0.86,103.6,37.0,1.5169,46.8,11.7903,51.63,0.5536,2.2666,20.4642,0.357,2,Stressed
0.0107,0.0097,9.808,9.808,5.1e-05,37.94,0.66,45.5,12.9,0.0224,28.9,4.1835,17.65,0.0155,0.0604,914.666,0.2834,3,Inactive
-0.0076,0.0003,9.8081,9.8081,0.000178,37.86,0.74,48.1,14.3,0.0098,23.7,4.5531,15.65,0.0209,0.0846,769.8936,0.2981,3,Inactive
0.354,0.047,9.9878,9.9942,0.043203,38.21,0.39,69.7,24.1,0.5788,57.2,7.346,30.15,0.2865,1.311,49.2168,0.3454,0,Healthy
1.0162,-0.6149,9.6572,9.73,0.300645,39.97,1.37,104.7,34.3,1.7839,44.3,9.9135,54.13,0.7671,2.8945,20.8061,0.3272,2,Stressed
-0.0469,-0.1871,9.6577,9.6596,0.05227,37.97,0.63,60.3,19.0,0.3863,57.4,6.4765,29.72,0.3437,1.2333,48.0322,0.3154,0,Healthy
0.0159,0.0162,9.7979,9.798,0.000179,38.03,0.57,43.0,15.3,0.0442,18.7,4.5852,23.61,0.0179,0.0784,928.7172,0.3558,3,Inactive
0.5076,0.5639,9.9734,10.0022,0.062766,38.7,0.1,57.1,25.0,1.2349,74.8,6.8775,30.26,0.3138,1.3522,48.9292,0.437,0,Healthy
-0.0164,0.0231,9.8084,9.8084,5.5e-05,37.81,0.79,40.3,12.9,0.0412,23.2,4.424,17.83,0.0169,0.0716,1171.0167,0.3211,3,Inactive
0.5463,1.0577,9.4358,9.5106,0.201406,39.29,0.69,88.2,39.6,1.9782,14.2,10.2891,40.92,0.7293,3.121,21.9176,0.4487,2,Stressed
-0.1064,-0.0427,9.9177,9.9183,0.060255,38.49,0.11,61.2,28.4,0.2568,72.0,6.485,24.49,0.3394,1.5656,45.1818,0.4632,0,Healthy
-0.0191,0.0299,9.7911,9.7911,0.000114,38.25,0.35,53.5,11.8,0.0679,26.6,5.3013,23.18,0.0203,0.0685,941.3041,0.2215,3,Inactive
0.4473,1.2344,9.1149,9.209,0.129289,39.42,0.82,109.4,34.2,2.3768,44.4,10.1543,37.45,0.7288,2.6315,26.2334,0.3123,2,Stressed
0.2968,-0.1871,10.0518,10.0579,0.222998,39.62,1.02,94.7,48.0,0.7256,20.4,11.4218,49.88,0.7276,3.0005,30.3457,0.5066,2,Stressed
0.1022,0.2511,9.9834,9.9871,0.034429,38.71,0.11,75.3,21.6,0.5267,43.9,7.0982,27.72,0.3089,1.0349,50.6984,0.2865,0,Healthy
0.583,0.018,10.0645,10.0814,0.012545,38.63,0.03,74.4,29.9,0.8555,60.8,6.4501,33.62,0.2579,0.8681,65.0605,0.4012,0,Healthy
0.1035,0.0923,9.7606,9.7616,0.001804,39.5,0.9,111.4,58.4,0.2451,4.4,13.825,60.68,0.2977,1.2241,208.2472,0.524,1,Sick
0.3524,0.5901,10.3556,10.3784,0.194485,39.72,1.12,96.7,43.7,1.4881,40.9,8.591,41.57,0.6809,3.0927,22.7597,0.4513,2,Stressed
0.3858,1.1945,10.4853,10.5602,0.169053,39.27,0.67,107.1,37.6,2.2556,22.3,9.4256,34.86,0.7231,2.4244,22.3719,0.3513,2,Stressed
0.0683,0.0695,9.8925,9.893,0.006544,40.17,1.57,100.0,9.6,0.2203,13.2,20.0274,103.86,0.2931,1.0323,182.264,0.0956,1,Sick
0.0156,-0.0212,9.8102,9.8103,0.000115,37.75,0.85,48.7,10.7,0.037,21.3,3.9852,15.22,0.0175,0.0681,747.4895,0.2193,3,Inactive
0.8857,0.3917,9.7359,9.7839,0.034065,39.28,0.68,105.7,52.9,1.3515,26.2,10.9416,54.22,0.7123,2.7387,22.4443,0.5005,2,Stressed
0.6369,0.6754,9.968,10.0112,0.18763,38.73,0.13,118.0,44.6,1.4703,23.8,9.5018,38.0,0.6721,2.4315,24.4965,0.3783,2,Stressed
1.0483,1.2968,9.4642,9.61,0.223302,39.9,1.3,97.2,56.0,2.6909,41.7,9.6325,41.69,0.5613,2.3442,18.4091,0.5764,2,Stressed
0.7647,-0.0451,10.0609,10.09,0.070655,38.75,0.15,71.6,21.8,1.0607,44.7,6.4909,24.49,0.3314,1.5656,43.4251,0.304,0,Healthy
0.538,0.0769,9.868,9.883,0.074104,39.62,1.02,85.7,41.6,0.6729,28.1,7.9643,31.36,0.8446,3.1539,25.5927,0.4848,2,Stressed
0.0814,0.0438,9.7913,9.7917,0.004643,40.72,2.12,89.8,44.1,0.1439,12.4,22.0894,105.8,0.2653,1.0087,168.4561,0.4913,1,Sick
0.1197,-0.0968,9.8129,9.8141,0.056181,38.09,0.51,64.4,24.1,0.2194,62.4,6.4984,24.49,0.3236,1.5656,45.3774,0.3738,0,Healthy
-0.0004,0.0324,9.7437,9.7438,0.001267,36.51,2.09,75.4,13.0,0.099,13.4,18.909,71.36,0.2498,1.263,170.5913,0.1719,1,Sick
-0.029,0.0191,9.8164,9.8165,3.6e-05,37.84,0.76,50.7,12.1,0.0546,22.4,1.7014,5.28,0.0135,0.0414,1408.1301,0.2382,3,Inactive
0.1724,0.1058,9.7538,9.7559,0.026336,38.8,0.2,42.4,27.5,0.3345,70.4,8.0993,37.44,0.2702,0.9209,53.3049,0.648,0,Healthy
0.2017,-0.1124,9.7688,9.7716,0.035258,38.73,0.13,62.6,25.8,0.3553,59.7,5.7912,21.74,0.258,1.0057,50.2276,0.4113,0,Healthy
0.8386,0.0482,9.604,9.6407,0.017988,38.38,0.22,68.9,25.2,1.0928,56.3,7.787,30.15,0.2662,1.1578,51.6886,0.365,0,Healthy
0.0046,0.018,9.8125,9.8125,0.000177,38.07,0.53,51.1,15.1,0.0251,31.5,3.9452,19.35,0.0135,0.0591,765.6559,0.2949,3,Inactive
0.0103,0.0172,9.8194,9.8194,8.5e-05,37.86,0.74,47.1,11.9,0.0369,20.4,3.6863,14.19,0.016,0.0622,904.4306,0.2533,3,Inactive
0.0004,0.0197,9.8197,9.8197,1.9e-05,37.76,0.84,40.5,12.7,0.0298,20.9,4.2809,15.47,0.0152,0.0509,1041.4716,0.3128,3,Inactive
-0.2619,-0.0792,9.859,9.8628,0.060912,38.92,0.32,59.0,23.8,0.3901,49.1,6.419,25.5,0.3325,1.3367,39.3001,0.4044,0,Healthy
-0.0308,0.0403,9.9138,9.9139,0.022828,38.46,0.14,62.0,23.7,0.1749,55.1,5.8002,29.21,0.3039,1.2077,52.9262,0.3817,0,Healthy
0.0125,0.0239,9.8109,9.8109,8.6e-05,38.01,0.59,42.8,14.9,0.0373,25.3,4.379,15.65,0.0211,0.0846,841.0794,0.3475,3,Inactive
0.4507,0.2392,9.1874,9.2016,0.159262,39.45,0.85,81.9,41.6,1.3125,38.0,11.7155,55.67,0.8112,3.1725,24.1253,0.5083,2,Stressed
1.0721,1.4075,10.4202,10.5693,0.230981,39.92,1.32,110.9,35.7,3.0897,10.8,9.5834,43.68,0.6607,2.8814,19.6685,0.3223,2,Stressed
0.4513,-0.0053,9.8007,9.8111,0.03897,39.11,0.51,65.6,30.6,0.4659,45.1,7.479,32.02,0.3098,1.043,49.901,0.4658,0,Healthy
0.3151,0.1306,9.7585,9.7645,0.008735,38.56,0.04,66.7,20.2,0.4972,62.5,6.6834,29.84,0.2686,1.1281,52.9325,0.3024,0,Healthy
0.2613,0.0225,9.7635,9.7671,0.002567,36.85,1.75,89.5,9.9,0.3302,0.8,16.5335,67.19,0.4076,2.0749,187.0827,0.1102,1,Sick
0.0142,0.0089,9.8111,9.8112,0.000138,38.04,0.56,51.3,17.3,0.0242,18.6,4.5567,18.74,0.0174,0.0639,946.2791,0.3364,3,Inactive
-0.839,0.0676,9.7335,9.7699,0.003565,36.84,1.76,85.3,12.3,0.983,19.4,21.6937,71.28,0.1799,0.9292,176.8881,0.1438,1,Sick
-0.4152,-0.9454,9.8747,9.9285,0.139275,39.18,0.58,90.7,41.2,1.4253,31.6,10.0046,37.85,0.6776,2.6576,26.5223,0.4544,2,Stressed
0.0094,0.0075,9.8173,9.8173,0.00017,37.74,0.86,49.2,12.2,0.0242,22.2,4.3336,15.68,0.0189,0.0701,828.313,0.2476,3,Inactive
-0.0425,-0.0705,9.8519,9.8523,0.003336,36.72,1.88,104.3,45.6,0.155,20.0,17.0967,66.06,0.4381,2.1244,184.1992,0.4373,1,Sick
1.7335,-0.0445,9.8013,9.9535,0.035614,39.79,1.19,80.5,36.4,1.7867,47.7,10.7259,41.47,0.8277,3.0721,28.599,0.4524,2,Stressed
0.0338,0.1502,9.7823,9.7835,0.000956,41.33,2.73,110.5,36.9,0.2118,5.1,19.7046,89.69,0.1185,0.6032,199.1928,0.3336,1,Sick
0.9833,-0.0028,9.3816,9.433,0.109954,38.67,0.07,104.3,42.0,1.4144,21.3,9.0759,39.25,0.7217,2.9093,24.3333,0.4029,2,Stressed
0.0016,0.0114,9.8258,9.8258,0.000148,37.79,0.81,57.6,13.4,0.0288,20.9,4.7522,24.26,0.0168,0.0851,783.7847,0.2328,3,Inactive
0.2179,-0.113,9.4541,9.4573,0.043058,38.3,0.3,68.1,19.8,0.6868,52.0,5.9651,22.91,0.2342,0.9832,53.1842,0.2905,0,Healthy
-0.3198,-0.2861,9.3899,9.3997,0.270841,40.01,1.41,82.1,45.7,1.026,42.5,8.8895,34.83,0.6428,2.7632,22.9191,0.5566,2,Stressed
0.4181,0.2658,9.2552,9.2685,0.067712,38.72,0.12,63.7,20.5,1.2386,59.7,5.9581,22.8,0.3505,1.2353,44.1394,0.3212,0,Healthy
0.1537,0.4328,9.8896,9.9003,0.052987,38.36,0.24,51.5,18.0,0.6661,52.7,8.0766,29.63,0.2535,0.95,51.1468,0.3489,0,Healthy
0.0004,0.0027,9.8046,9.8046,9e-05,38.19,0.41,47.8,7.7,0.0086,20.3,3.4656,15.11,0.0185,0.0849,822.5665,0.1605,3,Inactive
0.1738,-0.0853,9.7119,9.7138,0.002252,37.34,1.26,78.9,48.5,0.3572,15.9,14.4164,61.75,0.1941,0.7973,159.7164,0.614,1,Sick
0.0343,0.0117,9.8176,9.8176,0.002156,40.57,1.97,69.9,11.5,0.0537,14.5,20.2496,84.76,0.3927,1.4931,183.8091,0.1639,1,Sick
0.1378,0.1229,9.9238,9.9255,0.00453,40.56,1.96,86.1,14.0,0.3746,22.4,18.4067,75.68,0.1345,0.6347,168.1535,0.1624,1,Sick
0.045,-0.0039,9.8196,9.8197,8.7e-05,37.91,0.69,43.9,14.1,0.0585,21.5,4.3183,16.38,0.0192,0.0679,1128.7631,0.3204,3,Inactive
0.0748,0.0377,9.9068,9.9072,0.00231,36.84,1.76,71.1,50.4,0.2094,11.7,20.7287,70.16,0.1668,0.9292,169.5228,0.7093,1,Sick
0.3524,0.1696,9.9646,9.9723,0.087364,38.28,0.32,61.0,25.4,0.6766,64.9,5.7232,28.19,0.3788,1.5586,43.9773,0.4159,0,Healthy
0.1698,0.0903,9.8227,9.8246,0.001731,40.03,1.43,73.0,6.8,0.2728,15.8,15.6858,53.83,0.2859,1.2476,178.1684,0.0935,1,Sick
0.1907,0.1423,10.0051,10.008,0.042909,38.58,0.02,67.6,27.0,0.5281,74.5,7.3063,36.44,0.3346,1.4734,48.5603,0.3994,0,Healthy
0.0104,0.118,9.7902,9.7909,0.003844,40.81,2.21,88.9,42.0,0.1482,22.4,15.936,70.53,0.1751,0.8739,201.7103,0.4731,1,Sick
1.0439,-0.1371,9.6655,9.7226,0.402119,39.14,0.54,109.9,54.3,1.3255,51.6,9.3994,39.72,0.7321,3.2298,17.7745,0.4944,2,Stressed
-0.0246,0.0106,9.8118,9.8118,0.000228,38.06,0.54,44.3,14.7,0.037,17.3,3.8141,17.47,0.0166,0.0589,805.5736,0.3327,3,Inactive
0.5621,0.3289,10.2145,10.2353,0.042717,38.28,0.32,64.8,22.9,1.2956,45.8,6.5002,22.34,0.347,1.4899,45.3464,0.3539,0,Healthy
0.4243,-0.403,9.7573,9.7749,0.001986,37.27,1.33,90.5,33.6,0.88,11.3,17.1523,83.27,0.3109,1.3344,272.3277,0.3715,1,Sick
0.0311,-0.0021,9.8077,9.8078,0.000132,37.78,0.82,43.2,13.0,0.0354,24.9,3.7563,12.86,0.0159,0.0588,921.6322,0.3008,3,Inactive
-0.1324,0.0915,9.8957,9.897,0.049633,38.51,0.09,71.7,18.2,0.3096,80.0,6.5633,22.67,0.3105,1.3625,53.672,0.2532,0,Healthy
0.0184,0.0083,9.7917,9.7917,0.000108,37.79,0.81,50.4,13.8,0.0451,20.1,3.8733,16.34,0.016,0.0632,864.1898,0.274,3,Inactive
0.1927,-0.0554,9.5621,9.5642,0.030316,39.13,0.53,54.1,22.6,0.496,63.6,6.6751,23.97,0.2912,1.038,45.2659,0.4185,0,Healthy
0.0205,0.0106,9.7997,9.7998,8.9e-05,37.77,0.83,51.6,17.6,0.0413,16.1,3.6385,13.59,0.0163,0.0563,1029.2622,0.3414,3,Inactive
0.6487,-0.0076,10.0567,10.0776,0.028583,38.56,0.04,61.3,22.8,0.9031,56.4,6.7651,29.84,0.2882,1.1281,54.7337,0.3715,0,Healthy
0.1028,0.0285,9.7671,9.7677,0.003413,36.7,1.9,108.6,41.6,0.1742,3.2,15.8107,64.66,0.2399,1.101,147.1452,0.3833,1,Sick
0.0229,0.0021,9.8125,9.8125,0.000141,38.19,0.41,43.2,13.5,0.0275,18.9,4.7989,24.26,0.0164,0.0851,808.44,0.3131,3,Inactive
-1.2523,0.4487,8.7086,8.8096,0.362449,39.35,0.75,124.5,43.3,2.8023,39.9,9.2135,37.25,0.7057,2.4315,19.3261,0.3475,2,Stressed
0.0152,0.0171,9.8092,9.8093,5e-05,37.84,0.76,45.7,14.5,0.033,23.9,4.4694,16.21,0.0143,0.0549,1035.8608,0.3166,3,Inactive
-0.8565,0.33,10.0768,10.1185,0.292861,39.48,0.88,111.9,39.7,1.4533,33.9,8.2653,32.82,0.7835,3.3025,22.2547,0.3549,2,Stressed
-0.0445,0.0033,9.8054,9.8055,5e-05,37.97,0.63,50.0,12.5,0.0525,19.8,3.7895,15.66,0.0195,0.0686,913.9602,0.25,3,Inactive
0.0726,-0.4805,9.1814,9.1942,0.187004,39.02,0.42,105.8,38.8,1.1816,28.8,9.6259,37.66,0.7837,3.121,17.9601,0.3669,2,Stressed
0.0821,-0.6101,9.2332,9.2537,0.229724,38.5,0.1,103.1,45.7,1.269,33.2,9.6172,43.68,0.6575,2.8814,19.8827,0.4435,2,Stressed
0.0248,0.0153,9.8022,9.8023,8.8e-05,37.72,0.88,45.9,15.3,0.0478,25.4,3.9337,15.12,0.0152,0.0622,969.749,0.333,3,Inactive
0.0563,0.1388,9.8748,9.8759,0.004909,41.47,2.87,67.5,46.2,0.2599,32.1,16.3601,56.3,0.4731,1.8799,158.5493,0.6842,1,Sick
-0.0152,0.0039,9.815,9.8151,7.9e-05,37.69,0.91,48.4,14.9,0.0241,18.3,4.6068,20.36,0.0233,0.1079,942.9901,0.3082,3,Inactive
0.0991,0.8789,9.2849,9.3269,0.212942,39.45,0.85,87.7,51.3,1.5032,28.2,10.4095,42.94,0.7654,2.6914,22.2322,0.5849,2,Stressed
0.0503,0.0232,9.8179,9.8181,7.9e-05,37.95,0.65,45.6,16.9,0.0814,16.8,3.5249,14.71,0.0203,0.0862,821.9708,0.3702,3,Inactive
0.099,0.2221,9.9385,9.9414,0.023318,38.53,0.07,64.3,26.8,0.4495,51.4,6.8671,38.37,0.3962,1.6401,55.2423,0.4166,0,Healthy
0.01,0.0133,9.8087,9.8087,5.5e-05,37.62,0.98,44.9,14.0,0.0247,16.1,3.6221,18.55,0.0189,0.0659,918.0906,0.311,3,Inactive
-0.0475,0.065,9.7914,9.7917,0.002166,40.1,1.5,117.1,44.4,0.1312,11.8,18.6319,76.13,0.384,1.7709,191.9709,0.3793,1,Sick
-0.0131,-0.0081,9.806,9.806,8.8e-05,38.22,0.38,43.6,13.4,0.0252,26.7,4.2748,15.47,0.0135,0.054,975.1553,0.3069,3,Inactive
1.8421,0.5777,9.9547,10.1402,0.092246,39.31,0.71,90.9,33.2,2.5645,61.1,8.2559,26.13,0.8707,3.3873,25.577,0.3648,2,Stressed
0.6945,0.3675,9.7856,9.8171,0.001394,40.72,2.12,91.7,35.1,1.0864,12.5,19.3628,74.24,0.2458,1.0589,220.7765,0.3827,1,Sick
-0.1195,0.8864,10.1367,10.176,0.111609,38.92,0.32,86.3,39.2,1.3326,27.4,8.5866,27.36,0.5822,2.0857,20.8365,0.4541,2,Stressed
0.3122,0.1647,9.7209,9.7273,0.024232,38.38,0.22,67.4,27.0,0.566,65.3,7.4582,33.08,0.294,1.1992,43.8332,0.4003,0,Healthy
0.7208,0.0556,9.7335,9.7603,0.025588,38.53,0.07,73.9,24.4,0.8529,51.3,6.8398,30.12,0.3474,1.4362,52.0461,0.33,0,Healthy
0.6243,1.0902,10.4358,10.5111,0.228494,39.37,0.77,89.9,36.6,2.3403,6.9,8.6017,32.75,0.5982,2.7579,25.2291,0.4066,2,Stressed
0.9429,0.2977,9.7987,9.8484,0.179166,40.1,1.5,91.7,44.4,1.2519,31.9,11.1842,37.86,0.7241,2.6776,19.7999,0.484,2,Stressed
0.034,0.1184,9.8453,9.8461,0.003831,40.05,1.45,70.1,15.5,0.1876,15.0,22.1156,105.8,0.2486,1.0087,163.4901,0.2213,1,Sick
0.3184,1.1403,8.5884,8.6697,0.418283,39.85,1.25,94.5,49.6,2.6803,26.0,9.3016,39.72,0.7125,3.2298,17.6998,0.5253,2,Stressed
0.5384,0.155,9.9061,9.9219,0.048912,38.65,0.05,65.2,19.8,0.7895,67.6,6.6348,31.86,0.3119,1.5809,59.7343,0.3032,0,Healthy
0.5663,0.7603,9.7433,9.7893,0.000672,36.85,1.75,78.7,61.2,1.3933,18.6,17.4031,60.47,0.2831,1.3572,190.9043,0.7771,1,Sick
0.7797,-0.4679,9.1605,9.2055,0.287024,39.74,1.14,101.5,44.2,1.8971,33.8,8.4379,34.58,0.8877,3.3125,19.0858,0.4354,2,Stressed
0.0287,0.0285,9.8107,9.8108,0.000108,37.52,1.08,51.0,15.5,0.0579,31.5,5.2015,20.82,0.0166,0.0667,958.2789,0.3043,3,Inactive
0.0319,0.0244,9.7995,9.7996,7.5e-05,37.8,0.8,49.7,12.7,0.0667,17.2,4.1125,16.95,0.0173,0.0716,1072.6872,0.2554,3,Inactive
0.1174,0.0226,9.8466,9.8473,0.001054,37.03,1.57,91.7,52.4,0.1766,24.9,17.9292,77.33,0.3287,1.4708,216.029,0.571,1,Sick
0.1864,0.2899,9.6113,9.6175,0.031525,38.9,0.3,77.9,25.4,0.675,56.2,6.4274,24.71,0.3159,1.2304,60.4899,0.3258,0,Healthy
0.0638,-0.0119,9.8555,9.8557,0.006346,36.53,2.07,95.1,46.2,0.1212,11.8,16.3843,76.45,0.2678,1.194,167.0297,0.4863,1,Sick
-0.197,-0.2485,10.0649,10.0699,0.062066,38.52,0.08,63.2,23.2,0.7004,67.1,6.6845,24.6,0.2313,0.9784,37.4876,0.3665,0,Healthy
0.6142,0.2185,10.0949,10.116,0.052958,38.89,0.29,72.4,31.6,1.1176,59.1,6.333,29.72,0.3809,1.527,45.7584,0.4364,0,Healthy
1.662,1.4363,10.3797,10.6095,0.131393,39.5,0.9,82.5,38.7,3.6679,20.1,9.1136,47.37,0.8717,4.074,25.4234,0.4688,2,Stressed
0.1268,0.0728,9.8363,9.8374,0.003518,40.56,1.96,79.5,54.3,0.226,21.0,20.9864,75.4,0.3094,1.3138,205.8531,0.6822,1,Sick
-0.0029,0.0235,9.7401,9.7402,0.002091,37.13,1.47,88.4,44.8,0.0962,0.0,17.3894,88.65,0.374,1.7512,175.023,0.5071,1,Sick
0.0957,-0.0068,9.8216,9.822,0.002828,40.07,1.47,108.5,44.6,0.1141,13.8,19.538,69.98,0.4041,1.5448,195.7125,0.4112,1,Sick
0.0211,-0.0206,9.8174,9.8175,8.4e-05,37.77,0.83,45.7,14.7,0.0491,22.1,4.7963,22.01,0.0177,0.0737,916.4668,0.3211,3,Inactive
0.0514,0.1876,9.5316,9.5336,0.059085,38.41,0.19,47.8,20.7,0.5173,67.5,7.459,30.15,0.2961,1.311,49.9794,0.4333,0,Healthy
0.026,0.0276,9.8116,9.8116,0.000176,37.74,0.86,39.8,12.7,0.0552,18.6,4.3388,15.72,0.0188,0.0736,827.0801,0.3204,3,Inactive
1.0257,0.274,9.3434,9.4035,0.40802,39.51,0.91,96.4,36.3,1.7662,51.6,11.188,51.97,0.7686,3.279,20.4916,0.3767,2,Stressed
0.0895,-0.0053,9.7932,9.7936,0.000833,40.94,2.34,108.8,11.8,0.1117,13.3,17.6,78.77,0.0769,0.2602,187.0815,0.1082,1,Sick
0.0397,0.018,9.8143,9.8144,4e-05,38.12,0.48,48.5,11.4,0.062,30.1,4.1156,16.13,0.0164,0.0582,828.8603,0.2347,3,Inactive
0.0273,-0.0405,9.8219,9.822,0.000829,40.38,1.78,91.0,55.0,0.0796,16.0,19.7801,94.32,0.3144,1.5497,170.9185,0.6044,1,Sick
0.0188,-0.0043,9.8245,9.8245,4e-05,37.47,1.13,43.6,14.0,0.0375,28.4,3.7441,13.9,0.0179,0.0695,926.6004,0.3219,3,Inactive
0.0201,-0.0354,9.8462,9.8462,0.002525,40.42,1.82,70.5,54.5,0.0917,17.2,12.4532,44.21,0.2805,1.4376,223.6309,0.7733,1,Sick
0.0239,-0.0233,9.8054,9.8054,0.003346,41.0,2.4,86.9,44.6,0.0518,12.0,15.6441,70.78,0.3433,1.4708,201.0985,0.5133,1,Sick
0.0125,-0.0668,9.7649,9.7652,0.001502,40.51,1.91,129.2,44.9,0.1244,6.1,15.3898,60.68,0.2893,1.2241,237.9733,0.3478,1,Sick
0.1796,0.7031,10.0817,10.1078,0.272616,39.51,0.91,114.0,40.3,1.1544,25.7,7.3998,31.65,0.6987,2.9769,24.2317,0.3537,2,Stressed
-0.02,0.0116,9.8043,9.8043,5.8e-05,37.81,0.79,46.4,9.4,0.0373,24.2,3.7672,13.68,0.0157,0.0625,930.2391,0.2018,3,Inactive
-0.0138,0.0081,9.6581,9.6581,0.04214,38.75,0.15,75.8,21.7,0.1738,50.2,6.3137,27.36,0.2924,1.176,46.8345,0.2858,0,Healthy
-0.1321,0.2524,9.7356,9.7398,0.009426,38.54,0.06,67.4,15.8,0.4588,69.5,6.7295,21.33,0.3346,1.5061,57.5137,0.2348,0,Healthy
0.9878,0.4446,9.8528,9.9122,0.17753,39.27,0.67,99.2,35.9,1.4752,26.7,9.461,38.27,0.8113,3.2314,24.3265,0.3622,2,Stressed
-0.0001,-0.0054,9.8137,9.8137,7.5e-05,37.81,0.79,53.2,14.0,0.0092,27.5,3.4703,15.66,0.0188,0.0686,864.2531,0.2624,3,Inactive
0.1068,-0.0576,9.8238,9.8245,0.00086,40.73,2.13,102.0,9.6,0.1782,10.4,18.8222,85.97,0.0819,0.4517,216.1777,0.0938,1,Sick
-0.0265,0.127,9.8682,9.869,0.001116,41.11,2.51,105.3,50.4,0.2118,15.2,21.1689,91.69,0.2965,1.1271,264.6338,0.4785,1,Sick
-0.6048,-0.1917,9.7713,9.7919,0.035361,38.7,0.1,56.7,20.5,0.8351,51.5,7.2482,25.0,0.3484,1.2923,49.7109,0.3618,0,Healthy
0.0325,0.0026,9.8206,9.8207,0.000529,37.09,1.51,91.1,51.4,0.0457,10.8,19.7748,73.46,0.4235,1.4343,213.1122,0.5637,1,Sick
-0.0036,0.0352,9.7943,9.7944,0.000113,37.72,0.88,45.4,10.8,0.0545,38.4,4.065,16.42,0.0165,0.0674,914.4264,0.2379,3,Inactive
0.0211,0.0025,9.8286,9.8287,0.000132,38.48,0.12,52.4,17.2,0.0422,24.6,3.9261,14.27,0.0176,0.0656,879.4912,0.3288,3,Inactive
0.0139,-0.0041,9.7889,9.7889,0.000242,37.73,0.87,45.4,14.6,0.0391,19.9,3.978,18.3,0.0163,0.0626,861.945,0.3215,3,Inactive
-0.2885,-0.2206,9.753,9.7598,0.067163,38.82,0.22,71.0,29.8,0.5661,55.6,8.5366,35.17,0.2651,1.0306,45.9687,0.4193,0,Healthy
0.3919,1.3416,9.1911,9.2968,0.088824,39.84,1.24,96.2,35.1,2.3524,31.7,9.2619,40.47,0.4941,2.0858,28.1139,0.3643,2,Stressed
0.0152,-0.0016,9.8113,9.8113,2.6e-05,37.95,0.65,57.3,11.5,0.0181,26.8,4.396,16.69,0.0161,0.0526,970.3975,0.2006,3,Inactive
0.3679,0.0969,9.6855,9.693,0.038965,38.92,0.32,74.1,22.4,0.5893,45.4,5.6619,24.46,0.2732,1.2878,49.4605,0.3024,0,Healthy
-0.8456,-0.0801,9.3962,9.4345,0.232292,39.5,0.9,87.5,47.6,1.3395,15.9,9.531,40.73,0.5637,2.6749,24.6701,0.5439,2,Stressed
1.2885,-0.913,9.827,9.9531,0.15888,38.89,0.29,83.7,48.8,2.2185,33.2,10.8129,54.22,0.7029,2.7387,20.5752,0.5826,2,Stressed
0.0569,0.7516,10.3147,10.3422,0.20061,39.59,0.99,93.0,48.2,1.3132,46.8,9.902,36.93,0.8352,3.8856,21.941,0.5175,2,Stressed
0.0999,-0.0022,9.8269,9.8274,0.043018,38.7,0.1,70.4,17.6,0.1189,53.6,6.6618,23.02,0.32,1.311,55.8441,0.2497,0,Healthy
-0.0056,0.0038,9.8092,9.8092,2.1e-05,38.07,0.53,43.4,15.9,0.0102,17.7,5.353,22.07,0.0176,0.0664,892.798,0.3663,3,Inactive
0.0133,0.0221,9.8073,9.8073,8.7e-05,38.44,0.16,48.7,11.8,0.038,34.2,3.9623,18.77,0.0188,0.078,893.6962,0.2428,3,Inactive
-0.004,0.009,9.7929,9.7929,9e-05,37.82,0.78,50.2,10.8,0.0301,21.5,4.9145,20.35,0.0169,0.0674,770.5369,0.214,3,Inactive
0.3335,-0.1213,10.1054,10.1116,0.326305,39.42,0.82,97.9,53.6,0.7501,21.7,10.1996,39.49,0.7239,3.045,21.4797,0.5473,2,Stressed
-0.0434,0.0188,9.7566,9.7567,0.001589,39.67,1.07,78.4,17.9,0.1156,17.8,18.0514,72.58,0.3638,1.6586,227.8428,0.2281,1,Sick
0.597,0.3003,9.9554,9.9778,0.026793,38.29,0.31,64.5,29.1,1.0427,51.7,6.4065,25.5,0.3308,1.3367,39.4963,0.4516,0,Healthy
0.0021,-0.0499,9.7291,9.7292,0.003859,37.03,1.57,110.4,17.6,0.1329,4.2,16.0337,58.9,0.2888,1.2322,170.5572,0.1592,1,Sick
0.0435,0.0431,9.8428,9.843,0.00256,40.76,2.16,81.0,14.9,0.1194,26.2,14.9208,61.51,0.1835,0.8772,192.345,0.1844,1,Sick
0.9862,1.288,9.6361,9.7717,0.219497,39.22,0.62,94.7,35.2,2.4481,11.6,9.0714,38.27,0.8075,3.2314,24.4537,0.3719,2,Stressed
0.4358,-0.6311,8.925,8.9579,0.221335,39.42,0.82,92.5,34.6,1.9519,25.8,9.5056,33.93,0.5085,2.4653,19.466,0.3747,2,Stressed
0.0006,-0.0028,9.7977,9.7977,0.000108,38.18,0.42,45.8,14.2,0.0157,25.8,3.4729,14.55,0.0157,0.059,1066.3657,0.3093,3,Inactive
0.0516,0.1905,9.2796,9.2817,0.093153,38.59,0.01,70.7,20.3,0.7725,53.9,5.8299,21.81,0.3455,1.3398,45.355,0.2873,0,Healthy
-0.0061,0.0049,9.8137,9.8137,5.7e-05,37.91,0.69,47.2,13.3,0.0148,16.8,4.0527,15.2,0.0171,0.0682,1013.0564,0.2818,3,Inactive
0.3366,0.8548,9.3639,9.4089,0.213908,38.41,0.19,96.1,46.6,1.6374,13.6,9.2044,37.71,0.7476,3.8237,17.4783,0.4846,2,Stressed
-0.0097,0.0189,9.8008,9.8008,4.4e-05,37.5,1.1,48.4,11.4,0.0378,31.4,4.4542,18.66,0.0194,0.0689,985.5197,0.2346,3,Inactive
-0.7454,0.1541,9.6257,9.6557,0.074363,39.97,1.37,92.9,32.2,1.0837,40.0,10.2565,37.29,0.5318,2.1069,30.9068,0.3464,2,Stressed
0.6477,-0.4509,9.6048,9.6372,0.055949,38.6,0.0,73.8,22.8,1.3038,59.7,6.2844,26.65,0.3487,1.4618,46.0405,0.3089,0,Healthy
0.0178,0.0254,9.8081,9.8081,5.5e-05,38.2,0.4,45.7,14.5,0.0452,14.1,3.9299,16.85,0.0171,0.0575,862.6652,0.3183,3,Inactive
1.7741,1.0996,10.092,10.3056,0.28062,38.95,0.35,87.9,42.8,3.1557,18.6,11.8303,44.59,0.7801,2.6959,21.3267,0.4866,2,Stressed
0.1647,0.2497,9.7225,9.7271,0.025142,38.74,0.14,62.8,21.3,0.502,60.1,5.794,27.36,0.3314,1.2317,50.2403,0.3391,0,Healthy
-0.0928,1.1865,10.0866,10.1566,0.061745,39.8,1.2,90.9,40.2,1.5559,58.3,7.3607,35.88,0.8405,3.1764,23.4769,0.4425,2,Stressed
-0.0924,0.0245,9.8269,9.8274,0.00196,40.85,2.25,79.4,10.2,0.1338,28.3,13.5897,70.78,0.3408,1.4708,215.8309,0.1279,1,Sick
0.3515,0.4238,9.5953,9.611,0.014843,38.51,0.09,64.5,15.8,0.99,62.9,7.6631,30.15,0.2714,1.1578,51.5773,0.245,0,Healthy
-0.7661,-0.1304,9.8082,9.8389,0.131363,40.29,1.69,100.9,37.3,0.8983,25.0,8.0756,38.6,0.596,2.3286,23.485,0.3697,2,Stressed
0.0469,-0.0086,9.8049,9.805,0.00013,38.03,0.57,43.1,15.9,0.0607,8.1,3.632,13.05,0.0172,0.0568,779.4733,0.3695,3,Inactive
0.6822,-0.2741,10.5558,10.5813,0.368674,38.81,0.21,80.9,33.3,1.702,31.6,11.0186,55.95,0.7423,3.279,19.941,0.4119,2,Stressed
0.2392,0.4652,9.9591,9.9728,0.022968,38.96,0.36,68.4,20.3,0.8535,59.2,7.8639,32.74,0.2833,0.9647,48.7472,0.2969,0,Healthy
0.7274,-0.4184,9.8885,9.924,0.097228,39.79,1.19,96.2,37.0,1.2243,41.8,10.1753,42.54,0.5345,2.2003,22.6296,0.3844,2,Stressed
0.0308,0.0102,9.8104,9.8104,9.8e-05,37.98,0.62,43.3,14.5,0.0413,20.8,4.4,15.65,0.0213,0.0846,821.4197,0.3345,3,Inactive
0.024,-0.0098,9.8214,9.8214,6.1e-05,37.88,0.72,46.8,16.2,0.0451,23.9,4.6004,16.9,0.0162,0.064,1005.1126,0.3461,3,Inactive
0.0036,0.0026,9.8021,9.8021,6.9e-05,37.89,0.71,48.9,13.3,0.0141,22.0,3.1733,13.93,0.0171,0.0585,994.354,0.2717,3,Inactive
0.6994,0.5133,11.1931,11.2267,0.33207,39.11,0.51,108.1,45.3,2.5958,44.3,11.563,51.97,0.8481,3.279,20.3522,0.419,2,Stressed
0.4787,-0.0495,9.9053,9.917,0.036381,38.6,0.0,74.5,23.9,0.6236,58.2,6.1183,22.91,0.2405,0.9832,52.8981,0.3209,0,Healthy
-1.419,-0.7791,9.6359,9.771,0.246076,38.7,0.1,84.3,41.2,2.3722,40.7,11.2586,48.16,0.6877,3.2617,20.4759,0.4882,2,Stressed
0.0355,-0.0235,9.8096,9.8097,0.002903,40.29,1.69,99.7,10.2,0.0593,6.9,20.1334,90.62,0.335,1.4755,236.4024,0.1023,1,Sick
0.3717,1.0323,9.7659,9.8273,0.240238,39.44,0.84,88.6,30.1,1.4481,17.2,9.9776,37.71,0.7343,3.8237,17.6372,0.3397,2,Stressed
0.0623,-0.0055,9.8294,9.8296,0.000173,38.03,0.57,44.2,13.4,0.0873,25.9,3.6769,16.73,0.0189,0.0783,793.0948,0.3022,3,Inactive
-1.2596,-0.0859,8.9746,9.0629,0.248782,39.84,1.24,97.4,49.1,2.1809,37.6,10.6825,51.63,0.5343,2.254,19.2177,0.5043,2,Stressed
1.9665,-0.554,9.4466,9.665,0.13746,39.87,1.27,112.6,40.3,2.8839,29.1,8.8767,40.73,0.7009,2.9449,23.0858,0.3582,2,Stressed
-0.1531,-0.0696,9.7387,9.7402,0.001568,40.56,1.96,88.1,46.4,0.294,0.2,19.777,71.56,0.2215,1.2599,226.8055,0.5262,1,Sick
0.7826,0.5646,9.8989,9.9458,0.137078,39.33,0.73,107.1,43.4,1.4361,14.0,8.7425,34.71,0.5195,1.9975,26.044,0.4056,2,Stressed
0.0398,-0.0051,9.7981,9.7982,0.000132,38.25,0.35,50.5,15.1,0.0568,18.9,3.6983,12.53,0.0161,0.0559,932.6856,0.2982,3,Inactive
-0.7703,0.032,10.3967,10.4252,0.119586,39.38,0.78,114.2,34.8,1.389,37.9,6.7743,30.25,0.7661,3.8764,29.6225,0.3048,2,Stressed
0.6937,-0.1794,9.4169,9.4441,0.181443,39.63,1.03,105.8,41.8,1.2662,39.3,9.9956,37.45,0.7565,2.8104,26.0508,0.3957,2,Stressed
-0.0927,0.0392,9.8498,9.8503,0.003371,40.72,2.12,124.1,57.5,0.1716,0.0,20.3767,74.51,0.4054,1.6449,227.9874,0.4636,1,Sick
0.0045,-0.0197,9.8076,9.8076,6.3e-05,38.02,0.58,55.1,14.0,0.0266,12.3,4.4532,19.98,0.017,0.0716,1210.502,0.2548,3,Inactive
0.0157,0.0143,9.8107,9.8107,8.1e-05,37.88,0.72,46.5,12.0,0.0307,19.4,3.6961,15.98,0.0144,0.0514,981.81,0.2571,3,Inactive
0.5172,-0.1645,9.8007,9.8157,0.004987,40.11,1.51,90.2,16.4,0.691,21.6,18.3379,67.49,0.2947,1.4051,174.5045,0.1815,1,Sick
0.2322,0.0259,9.8615,9.8642,0.049464,38.76,0.16,75.4,23.3,0.3096,67.0,8.4645,38.33,0.3343,1.1068,50.9974,0.3085,0,Healthy
0.117,0.0879,9.8083,9.8094,0.000656,40.07,1.47,83.8,37.3,0.2065,13.3,18.8319,79.2,0.3544,1.6449,238.9948,0.4453,1,Sick
-0.1466,-0.4324,10.2831,10.2932,0.051366,38.78,0.18,71.3,30.4,1.0521,74.7,8.0754,31.21,0.3178,1.3171,42.7653,0.4263,0,Healthy
0.0604,0.0484,9.8745,9.8748,0.050586,38.56,0.04,71.6,21.5,0.1733,61.8,6.1894,30.29,0.3268,1.2364,51.6547,0.3002,0,Healthy
-0.0047,-0.016,9.8031,9.8031,2.8e-05,37.85,0.75,50.1,17.0,0.0276,22.2,4.1154,16.53,0.0177,0.0594,1022.6509,0.3384,3,Inactive
0.0641,0.0331,9.7968,9.797,0.002696,40.87,2.27,82.6,8.9,0.1104,25.3,16.1511,61.09,0.1207,0.708,253.7432,0.1081,1,Sick
0.0628,0.0236,9.8657,9.8659,0.002323,40.34,1.74,111.3,7.5,0.1421,0.7,19.3098,79.32,0.2123,0.9576,227.2664,0.0674,1,Sick
0.4587,0.547,9.8163,9.8423,0.125149,39.08,0.48,109.1,29.3,1.012,36.2,8.1854,26.13,0.8617,3.3873,23.5428,0.2685,2,Stressed
0.4756,1.3025,9.9534,10.0495,0.097656,39.12,0.52,105.6,42.9,1.9215,32.1,9.4861,37.29,0.6666,2.487,25.2468,0.4058,2,Stressed
0.0571,0.0768,9.8504,9.8508,0.003172,36.56,2.04,80.7,10.3,0.1743,18.5,20.2326,79.27,0.2718,1.2452,151.7752,0.1279,1,Sick
-0.0471,-0.6596,9.7408,9.7632,0.062067,39.33,0.73,92.1,46.9,0.7759,62.8,10.4225,46.68,0.639,2.4573,23.84,0.5094,2,Stressed
-0.0228,0.0139,9.8061,9.8061,7.7e-05,37.83,0.77,47.6,14.3,0.0406,16.9,4.2933,17.06,0.017,0.0569,1042.5854,0.3003,3,Inactive
0.0317,0.0006,9.8005,9.8006,0.001832,37.06,1.54,98.9,58.0,0.0418,0.0,14.4859,60.32,0.2429,1.2241,176.2058,0.5867,1,Sick
0.012,0.0112,9.8107,9.8107,0.000133,38.03,0.57,43.7,16.9,0.0239,8.3,4.9705,18.52,0.0169,0.0783,773.5271,0.3858,3,Inactive
0.0145,0.0077,9.8068,9.8069,4.8e-05,37.56,1.04,51.1,13.7,0.0254,23.8,4.563,16.7,0.0153,0.0579,977.3507,0.2682,3,Inactive
0.1236,-0.033,9.6481,9.6489,0.052523,38.79,0.19,59.4,31.3,0.3186,49.7,7.4197,30.66,0.3097,1.3171,46.131,0.5268,0,Healthy
0.0128,0.0076,9.7699,9.7699,0.001069,40.33,1.73,138.6,43.0,0.0605,26.7,23.1157,78.98,0.0723,0.3348,265.4292,0.3103,1,Sick
-0.0006,-0.0016,9.8039,9.8039,0.000175,38.24,0.36,49.0,12.8,0.0083,18.0,3.9537,15.48,0.0176,0.0827,816.6407,0.2622,3,Inactive
0.4303,0.7895,10.1871,10.2267,0.083009,39.96,1.36,104.9,35.2,1.5969,31.2,10.3857,45.34,0.7474,3.2683,30.2804,0.3354,2,Stressed
-0.3264,-0.7097,10.5067,10.5357,0.208895,39.58,0.98,85.9,42.5,1.7327,13.3,8.6937,41.57,0.6832,3.0927,21.4812,0.4948,2,Stressed
0.0341,0.0,9.8137,9.8137,5.1e-05,38.07,0.53,45.9,13.2,0.0378,21.4,5.2807,20.87,0.0161,0.0662,779.1144,0.2869,3,Inactive
0.0609,-0.0192,9.8014,9.8016,0.003932,36.55,2.05,73.5,38.2,0.0886,18.1,18.0096,74.52,0.3531,1.6191,190.1326,0.5198,1,Sick
0.5621,0.0171,9.5439,9.5604,0.046406,38.75,0.15,77.7,24.5,0.8454,58.8,6.5173,26.03,0.3281,1.3807,44.0519,0.3152,0,Healthy
0.0998,0.383,9.77,9.778,0.023464,39.09,0.49,74.3,24.3,0.5229,65.3,7.2817,24.7,0.2717,1.1626,52.2698,0.3268,0,Healthy
0.0279,-0.0089,9.8158,9.8158,5.9e-05,37.93,0.67,49.8,11.3,0.0426,19.2,4.2034,17.86,0.0155,0.0674,831.7445,0.2276,3,Inactive
-0.1059,0.1033,9.8177,9.8188,0.001973,40.81,2.21,46.1,37.9,0.2168,6.1,19.7177,79.27,0.1687,0.8385,180.2778,0.8223,1,Sick
0.7777,0.5915,9.3129,9.364,0.167823,38.65,0.05,100.2,46.6,1.8664,41.5,11.31,38.27,0.7102,3.2352,22.2734,0.465,2,Stressed
0.0132,0.0402,9.8251,9.8252,0.001674,36.68,1.92,109.2,49.3,0.0686,6.9,20.7637,89.67,0.3482,1.4364,184.538,0.4512,1,Sick
0.0371,0.0099,9.7952,9.7953,0.000206,38.04,0.56,50.9,11.3,0.0617,35.2,3.9161,17.42,0.0201,0.0862,734.1459,0.2228,3,Inactive
-0.0458,0.0411,9.9538,9.954,0.039031,38.49,0.11,53.2,28.1,0.2307,52.3,7.9903,32.4,0.3905,1.3906,56.1537,0.5275,0,Healthy
0.1179,-0.0014,9.7674,9.7681,0.001132,41.18,2.58,101.4,9.5,0.1619,20.9,16.5424,66.64,0.3288,1.4708,215.4532,0.0934,1,Sick
-0.1071,0.5724,9.7175,9.735,0.044626,39.87,1.27,102.4,42.3,0.772,21.5,9.6147,37.34,0.6652,2.9623,28.9662,0.4126,2,Stressed
-0.0469,0.1524,9.7396,9.7409,0.005028,37.19,1.41,135.9,25.5,0.2698,8.1,18.1196,73.38,0.3776,2.143,208.2288,0.1878,1,Sick
0.6334,0.184,10.0856,10.1072,0.140347,39.18,0.58,99.6,45.7,1.093,18.5,8.3102,32.0,0.8412,3.2228,27.3485,0.4586,2,Stressed
0.3218,0.5583,9.5866,9.6083,0.058881,39.01,0.41,97.2,47.4,1.1035,28.7,9.9649,41.0,0.6855,3.0005,28.5381,0.4874,2,Stressed
0.8592,0.4712,10.1473,10.1945,0.10771,39.35,0.75,110.6,39.5,1.6676,19.3,8.3972,32.0,0.8252,3.2228,29.5398,0.3573,2,Stressed
0.2613,0.8714,9.6311,9.6739,0.180331,39.62,1.02,104.1,48.8,1.3116,17.5,8.8587,36.11,0.6363,2.6749,24.1907,0.4688,2,Stressed
0.033,-0.0067,9.8015,9.8016,9.6e-05,37.81,0.79,49.3,12.4,0.0482,24.1,4.1581,18.12,0.0122,0.0442,1001.1289,0.2522,3,Inactive
0.0755,0.0295,9.7586,9.759,0.003411,40.04,1.44,67.0,55.4,0.1564,15.8,15.9579,60.13,0.3384,1.6687,187.3963,0.8278,1,Sick
0.2594,0.471,9.8899,9.9045,0.047064,38.4,0.2,68.4,29.3,0.8103,60.4,4.9277,21.38,0.3077,1.2084,55.1949,0.4287,0,Healthy
-0.0354,0.0072,9.8523,9.8524,0.002629,36.54,2.06,64.0,39.7,0.0849,19.6,18.6261,68.53,0.3153,1.3046,189.299,0.6201,1,Sick
0.5201,0.6257,9.1485,9.1846,0.179076,39.29,0.69,108.0,42.4,1.8072,32.1,8.6261,32.0,0.8403,3.2228,24.4576,0.3928,2,Stressed
0.0251,0.0701,9.848,9.8483,0.000733,36.7,1.9,121.5,50.0,0.1332,11.4,15.994,60.71,0.1037,0.4408,178.2033,0.4117,1,Sick
0.6398,0.2879,9.8396,9.8645,0.018758,38.77,0.17,65.4,25.3,0.9572,48.3,5.1704,20.77,0.3077,1.5809,58.8665,0.3875,0,Healthy
-0.1093,0.0783,9.7403,9.7413,0.005135,40.93,2.33,85.1,36.3,0.2573,20.1,18.2873,75.68,0.134,0.6347,169.5109,0.4267,1,Sick
0.0059,0.0019,9.8161,9.8162,7.7e-05,38.36,0.24,53.1,13.8,0.0139,17.3,4.409,16.9,0.0169,0.0641,1071.8448,0.2603,3,Inactive
-1.0904,-0.8105,9.4171,9.5146,0.044165,38.95,0.35,105.3,42.8,2.2938,24.7,8.648,32.0,0.8116,3.2228,25.91,0.4068,2,Stressed
0.0221,0.0201,9.8698,9.8698,0.001231,40.46,1.86,59.7,43.5,0.102,9.5,21.4515,80.41,0.2998,1.7214,244.9424,0.7273,1,Sick
0.352,-0.1872,9.7888,9.7969,0.06308,38.86,0.26,63.1,28.3,0.5605,56.3,8.5107,35.17,0.2628,1.0306,45.999,0.4489,0,Healthy
0.1007,0.0721,10.0412,10.042,0.04427,38.99,0.39,67.3,22.0,0.404,59.6,6.4199,25.33,0.2296,0.9006,52.4869,0.3266,0,Healthy
0.0772,0.0494,9.4293,9.4298,0.172132,39.46,0.86,101.5,48.4,0.5073,31.5,8.8816,35.03,0.7241,3.0341,29.3529,0.4772,2,Stressed
-0.1024,-0.8696,9.8972,9.9358,0.363755,39.45,0.85,76.4,50.8,1.0592,32.4,11.0369,46.53,0.7307,2.6914,21.4174,0.6651,2,Stressed
0.3681,0.0668,9.6866,9.6939,0.024855,38.76,0.16,52.4,21.4,0.5583,59.8,6.4813,26.29,0.2881,1.0872,44.0077,0.4089,0,Healthy
0.1403,-0.1509,9.7636,9.7658,0.002965,40.48,1.88,108.4,41.1,0.3376,11.8,18.0735,79.27,0.1952,0.7796,182.8104,0.3789,1,Sick
0.4422,0.0633,9.8704,9.8805,0.052958,38.51,0.09,69.8,24.4,0.5658,64.1,6.7884,38.37,0.3892,1.6401,50.834,0.3492,0,Healthy
0.8771,-0.2767,10.1509,10.1924,0.127423,39.5,0.9,106.3,39.4,1.4947,32.0,9.1978,35.44,0.7387,2.6315,26.4436,0.3704,2,Stressed
0.0054,-0.0158,9.809,9.8091,0.000106,38.04,0.56,43.4,13.0,0.0222,11.2,4.287,21.37,0.0179,0.0784,927.4902,0.2985,3,Inactive
0.1516,0.1653,9.8314,9.834,0.00079,36.63,1.97,126.1,7.5,0.3384,1.2,22.8655,94.32,0.315,1.5497,170.8126,0.0593,1,Sick
0.4325,-0.4486,9.7756,9.7954,0.00125,37.26,1.34,120.3,47.7,0.9156,15.1,21.026,100.83,0.2736,1.0087,197.0494,0.3964,1,Sick
0.0606,0.0555,9.8546,9.855,0.00151,39.91,1.31,117.7,14.1,0.1607,17.9,20.6887,84.69,0.3019,1.4906,246.964,0.1195,1,Sick
-0.0695,-0.2264,9.2203,9.2233,0.340717,39.8,1.2,107.9,34.2,0.8856,23.6,11.5073,62.4,0.8183,3.7732,18.04,0.3173,2,Stressed
0.0205,0.0081,9.814,9.814,7.3e-05,37.86,0.74,51.3,14.9,0.0326,23.9,3.1604,10.91,0.0166,0.0724,880.5301,0.2908,3,Inactive
0.2927,0.2891,10.0784,10.0868,0.031818,38.29,0.31,71.3,16.5,0.8502,40.6,5.5401,25.57,0.3086,1.0376,44.4626,0.232,0,Healthy
0.0011,0.035,9.8567,9.8568,0.005305,40.27,1.67,93.5,10.1,0.0828,7.1,15.7462,64.66,0.2334,1.0658,161.5573,0.1076,1,Sick
1.0897,0.638,9.8759,9.9563,0.07493,39.1,0.5,94.3,38.4,1.7936,35.5,7.8977,30.44,0.563,1.9993,26.7597,0.4076,2,Stressed
0.4764,0.1801,10.2186,10.2313,0.120182,39.4,0.8,88.4,35.9,1.0652,35.9,7.7687,41.57,0.6798,3.0927,20.4017,0.4059,2,Stressed
0.3667,0.9333,10.5023,10.5501,0.13113,39.4,0.8,97.3,43.0,1.9923,36.3,8.6507,34.71,0.5321,1.9975,26.0499,0.4419,2,Stressed
0.5589,0.3364,9.699,9.7209,0.043262,38.57,0.03,66.8,17.8,1.0063,50.3,7.254,33.49,0.331,1.2364,44.5521,0.267,0,Healthy
-0.1115,-0.0537,9.8607,9.8615,0.047272,38.33,0.27,73.5,21.8,0.216,69.6,6.0822,25.33,0.2342,0.9031,54.938,0.2961,0,Healthy
-0.3243,0.15,9.8253,9.8318,0.031746,38.31,0.29,70.8,23.4,0.4896,64.6,5.9609,17.59,0.3548,1.4331,53.5979,0.3303,0,Healthy
0.0754,0.0803,9.7566,9.7572,0.004875,36.84,1.76,64.7,38.7,0.2091,24.7,17.5177,78.81,0.1507,0.8654,154.5486,0.5981,1,Sick
-0.2083,0.1831,8.9969,9.0011,0.303857,39.72,1.12,96.9,47.4,1.2044,22.4,10.957,57.11,0.7494,3.7589,22.3017,0.4893,2,Stressed
0.0036,-0.0021,9.7817,9.7817,0.000225,38.05,0.55,52.7,13.1,0.0341,27.6,4.6832,19.46,0.0138,0.0478,828.2039,0.2483,3,Inactive
-0.0335,0.0015,9.8082,9.8083,0.000127,38.06,0.54,40.1,15.0,0.0368,18.8,3.824,15.99,0.016,0.0589,811.8146,0.3735,3,Inactive
0.0911,-0.0491,9.7334,9.734,0.003038,40.85,2.25,77.5,39.0,0.2168,9.2,20.2857,90.62,0.3349,1.4755,236.4641,0.5026,1,Sick
0.3705,0.2152,9.791,9.8003,0.049741,38.53,0.07,74.3,26.9,0.6047,51.5,6.9909,24.64,0.292,0.9351,46.2411,0.362,0,Healthy
0.0361,0.0597,9.7767,9.777,0.001568,36.75,1.85,90.3,50.6,0.129,16.5,18.2002,80.16,0.1831,1.028,177.0709,0.5601,1,Sick
0.0385,1.4927,9.9091,10.021,0.182837,39.15,0.55,113.6,31.2,1.6303,39.0,10.2964,36.93,0.6686,2.8213,23.3145,0.275,2,Stressed
0.0571,-0.0171,9.7971,9.7972,0.003023,40.55,1.95,101.8,58.2,0.0872,13.2,18.7041,64.1,0.301,1.728,196.5207,0.5715,1,Sick
0.1068,0.0723,10.0487,10.0495,0.023471,38.53,0.07,63.9,29.5,0.4178,46.6,6.2398,26.1,0.3267,1.2669,65.1078,0.4611,0,Healthy
0.551,-0.2154,9.8664,9.8841,0.094353,39.37,0.77,98.1,49.2,0.8227,52.4,9.3522,36.92,0.8225,2.7572,25.9369,0.5012,2,Stressed
0.0466,0.0051,9.8404,9.8405,0.003892,40.76,2.16,91.3,40.2,0.0821,26.8,19.1123,80.21,0.3758,1.8254,169.2318,0.4398,1,Sick
0.0379,-0.0137,9.8101,9.8102,0.002246,40.26,1.66,86.8,15.1,0.0518,13.9,18.2871,74.61,0.3491,1.3369,196.7128,0.1739,1,Sick
-0.0169,-0.8258,9.2337,9.2706,0.099121,40.08,1.48,106.4,44.8,1.4189,35.6,9.8281,38.52,0.8141,2.7572,26.0049,0.4213,2,Stressed
-0.0173,0.0048,9.8033,9.8033,4.3e-05,37.74,0.86,53.3,15.6,0.0287,14.3,2.765,10.57,0.0159,0.0639,927.4079,0.2918,3,Inactive
0.0064,0.0065,9.816,9.816,0.000225,37.77,0.83,57.1,13.6,0.0189,15.2,3.9099,17.42,0.0188,0.0862,681.0522,0.2383,3,Inactive
0.0222,0.0138,9.8935,9.8935,0.053147,38.75,0.15,63.9,24.3,0.1195,50.6,6.083,22.34,0.3594,1.5932,47.0607,0.3804,0,Healthy
0.1061,0.0422,9.8258,9.8264,0.001758,40.04,1.44,92.9,12.8,0.164,31.0,13.3935,48.63,0.3355,1.4159,184.8441,0.1373,1,Sick
0.0224,0.0027,9.8154,9.8154,7.5e-05,37.69,0.91,48.2,16.7,0.0305,27.8,3.6217,14.19,0.0158,0.0622,912.2362,0.3454,3,Inactive
0.0162,-0.0108,9.8108,9.8108,5.8e-05,37.99,0.61,51.5,15.6,0.0277,17.6,3.8043,15.22,0.0171,0.0681,769.2856,0.3036,3,Inactive
0.7605,-0.6492,9.708,9.7594,0.177467,39.23,0.63,99.2,47.9,1.5117,32.5,8.973,35.95,0.7102,2.6777,24.6579,0.4829,2,Stressed
0.4885,0.4748,9.7967,9.8204,0.025511,38.43,0.17,63.3,24.8,0.9766,62.3,6.3314,26.65,0.3704,1.4618,45.0438,0.3911,0,Healthy
0.0929,0.0789,9.8603,9.8611,0.001367,36.82,1.78,131.7,50.9,0.2221,12.4,17.6228,76.13,0.4213,1.7709,200.0923,0.3863,1,Sick
0.1651,-0.2081,10.1144,10.1178,0.069102,39.34,0.74,102.9,38.0,0.6775,19.8,10.8974,42.7,0.6558,2.2858,20.8502,0.3698,2,Stressed
-0.0239,0.0084,9.8248,9.8249,0.000188,37.42,1.18,43.9,15.1,0.0471,26.3,3.8873,19.35,0.0131,0.0591,761.768,0.3432,3,Inactive
0.0172,0.0185,9.8102,9.8102,0.00022,37.82,0.78,46.2,13.9,0.0359,19.6,4.1849,15.68,0.0194,0.0701,802.3181,0.3016,3,Inactive
0.0074,0.0067,9.7906,9.7906,0.000192,37.9,0.7,48.9,14.3,0.0335,23.4,4.1431,17.13,0.0143,0.0565,778.8246,0.2936,3,Inactive
0.4577,-0.4136,9.9506,9.9697,0.070092,38.59,0.01,75.8,24.0,1.0119,57.3,6.4146,23.72,0.3149,1.3625,47.4527,0.3173,0,Healthy
0.0336,0.0303,9.8252,9.8253,0.000191,37.75,0.85,43.2,13.3,0.0791,19.7,4.1115,16.93,0.0185,0.0675,823.2369,0.3077,3,Inactive
0.008,-0.0061,9.8219,9.8219,9.7e-05,37.9,0.7,52.8,10.4,0.026,29.1,4.5401,15.65,0.0207,0.0846,827.5797,0.1979,3,Inactive
0.1441,-0.0426,9.8,9.8012,0.003881,39.78,1.18,118.2,43.9,0.1967,16.3,16.2122,66.06,0.4383,2.1244,185.6825,0.3714,1,Sick
0.1857,-0.0559,9.8577,9.8596,0.001467,37.11,1.49,95.3,48.8,0.2893,9.6,17.472,76.45,0.1475,0.6821,172.0283,0.5123,1,Sick
0.2949,-0.0977,9.7493,9.7542,0.032125,38.8,0.2,68.8,24.6,0.4534,50.5,7.0506,32.02,0.2996,1.0421,48.1128,0.358,0,Healthy
0.2184,-0.076,9.8236,9.8263,0.001034,40.11,1.51,76.4,60.9,0.308,12.1,14.7862,51.23,0.192,1.0331,222.7094,0.7967,1,Sick
-0.0311,0.0022,9.8041,9.8042,8.1e-05,38.0,0.6,44.0,15.5,0.0392,21.7,4.0473,17.65,0.0161,0.0604,937.7105,0.351,3,Inactive
0.0252,0.0581,9.7449,9.7451,0.001364,36.98,1.62,91.6,10.2,0.1484,13.2,17.5991,76.45,0.1483,0.6821,173.2753,0.1113,1,Sick
1.7464,1.0014,10.4306,10.6231,0.211384,39.61,1.01,98.7,39.1,3.3684,43.8,10.2543,50.52,0.737,3.1835,17.9831,0.3959,2,Stressed
-0.0456,-0.0004,9.7427,9.7428,0.003048,40.72,2.12,98.4,41.7,0.1133,26.1,17.9683,78.81,0.0883,0.4403,177.6755,0.4239,1,Sick
0.2162,0.1357,10.0243,10.0276,0.026269,38.52,0.08,66.5,18.5,0.5661,60.7,5.7459,22.55,0.3287,1.2603,51.1304,0.2778,0,Healthy
0.8028,0.5741,9.5616,9.6124,0.227216,38.97,0.37,91.8,41.4,1.6253,23.1,9.8665,37.85,0.6689,2.6576,26.3129,0.4511,2,Stressed
-0.3471,0.0488,10.0404,10.0465,0.16091,40.12,1.52,102.0,46.6,0.6263,28.5,10.5146,46.68,0.7364,3.4825,28.3991,0.4571,2,Stressed
1.6013,0.472,9.862,10.0023,0.237068,39.4,0.8,106.0,48.7,2.1253,9.7,7.224,30.04,0.6339,2.2735,19.972,0.4595,2,Stressed
0.0284,-0.01,9.8066,9.8066,5.1e-05,37.81,0.79,47.2,16.7,0.0418,22.4,4.0375,18.77,0.0168,0.0613,979.5796,0.354,3,Inactive
-0.1025,0.1128,9.6694,9.6706,0.021903,38.15,0.45,77.3,24.7,0.3559,59.9,8.5616,34.34,0.2391,0.9255,58.9155,0.32,0,Healthy
-0.0643,0.2377,10.3749,10.3778,0.092171,38.4,0.2,58.6,26.0,0.8669,42.4,6.895,25.75,0.2922,1.1053,41.9358,0.4446,0,Healthy
1.1221,-0.1189,9.5606,9.6269,0.175941,39.46,0.86,108.5,46.4,1.4905,43.4,9.196,37.06,0.5361,2.201,23.0501,0.4276,2,Stressed
0.1305,0.3884,10.4498,10.4579,0.235182,39.89,1.29,95.9,48.6,1.1587,36.3,9.8764,43.9,0.6623,2.8346,21.5234,0.507,2,Stressed
0.7152,0.3308,10.0914,10.1221,0.167469,39.99,1.39,108.7,43.1,1.3274,42.0,8.7297,30.15,0.7803,2.474,22.6893,0.3964,2,Stressed
-0.4799,0.5357,9.7719,9.7983,0.030175,38.46,0.14,61.2,30.1,1.0537,58.2,7.3257,30.85,0.2662,0.9209,49.5478,0.4922,0,Healthy
-0.0958,0.0042,9.878,9.8784,0.002141,39.82,1.22,58.2,12.2,0.168,23.5,18.4766,80.21,0.1191,0.5659,252.2537,0.2105,1,Sick
-0.4436,0.1014,9.8646,9.8751,0.018605,38.61,0.01,61.6,20.0,0.5996,43.6,7.9071,35.77,0.2719,1.0689,53.7372,0.3249,0,Healthy
0.0055,0.0217,9.8157,9.8157,3.4e-05,37.63,0.97,42.6,14.5,0.0329,25.7,3.8223,13.68,0.0149,0.0625,879.3171,0.3393,3,Inactive
0.1083,0.0487,9.7892,9.7899,0.002524,40.48,1.88,79.1,15.3,0.1779,16.1,15.6536,61.81,0.1043,0.4408,175.5007,0.1938,1,Sick
-0.0035,0.0119,9.7971,9.7971,0.000102,38.01,0.59,43.8,14.0,0.0283,20.4,4.4077,20.41,0.0143,0.0632,874.6414,0.3202,3,Inactive
0.5738,0.2874,9.9471,9.9677,0.026971,38.23,0.37,65.8,32.6,0.9982,64.9,7.0769,25.0,0.3421,1.2923,49.9197,0.4952,0,Healthy
0.1428,0.354,9.9103,9.9177,0.039036,38.47,0.13,66.4,23.5,0.5971,46.6,7.4436,30.15,0.2722,1.311,50.1123,0.354,0,Healthy
-0.0486,0.1246,9.7903,9.7912,0.004137,40.38,1.78,95.1,52.5,0.1929,2.3,16.4202,69.49,0.4279,1.7512,166.4946,0.5523,1,Sick
1.3123,1.1127,9.8838,10.0324,0.094221,38.49,0.11,101.3,30.4,2.4988,37.3,10.5459,45.6,0.7988,2.7511,27.6899,0.2997,2,Stressed
0.5048,-0.0961,9.9207,9.934,0.01149,38.65,0.05,58.2,24.4,0.7116,55.8,6.7632,29.84,0.2838,1.1713,52.7227,0.4186,0,Healthy
0.2751,0.5623,9.8183,9.8382,0.030632,38.06,0.54,60.4,30.2,0.8456,44.4,6.1059,24.88,0.309,1.2304,65.5165,0.5006,0,Healthy
-0.377,0.2993,10.2287,10.24,0.304118,38.77,0.17,103.0,36.7,1.095,35.0,10.0768,39.49,0.6949,3.045,21.5113,0.3567,2,Stressed
0.0267,-0.0158,9.8108,9.8109,0.000104,37.96,0.64,49.7,14.5,0.0433,17.3,4.7442,19.16,0.0187,0.083,799.3489,0.2917,3,Inactive
-0.0959,0.2953,9.7973,9.8023,0.060887,38.95,0.35,68.4,19.3,0.4038,71.3,7.4117,36.07,0.2352,0.9252,41.8607,0.282,0,Healthy
0.0348,0.0111,9.8055,9.8056,0.000131,37.83,0.77,44.6,15.6,0.0504,30.4,5.2412,23.97,0.0133,0.0569,918.5942,0.3494,3,Inactive
-0.0177,0.0342,9.8093,9.8094,7.4e-05,37.89,0.71,45.0,13.8,0.0526,6.0,3.5085,14.88,0.0223,0.0914,843.3857,0.3061,3,Inactive
0.0274,0.0072,9.8051,9.8051,7.6e-05,38.05,0.55,57.6,14.8,0.0395,17.3,5.0061,20.3,0.0158,0.0578,945.7426,0.2572,3,Inactive
0.01,-0.0084,9.799,9.799,5.8e-05,37.75,0.85,50.4,16.5,0.0294,22.4,3.795,15.11,0.0203,0.0822,770.1472,0.3265,3,Inactive
-0.3641,0.0479,9.9744,9.9812,0.072306,38.13,0.47,60.3,26.0,0.5764,58.1,7.5989,33.34,0.3003,1.2034,40.3879,0.4316,0,Healthy
-0.0365,0.0602,9.7904,9.7907,0.00213,40.77,2.17,87.7,29.2,0.1163,14.4,21.1763,76.91,0.3048,1.7214,213.7937,0.3332,1,Sick
0.2568,0.1419,9.8174,9.8217,0.024735,39.07,0.47,69.3,27.2,0.4061,54.1,7.4283,27.79,0.3003,1.2653,58.4256,0.392,0,Healthy
0.496,0.0727,9.405,9.4183,0.066184,38.67,0.07,58.6,21.8,0.9737,65.1,7.6274,31.92,0.3051,1.23,50.0478,0.3718,0,Healthy
-0.131,-0.0128,9.755,9.7559,0.036146,38.38,0.22,71.2,31.3,0.1987,56.1,7.1076,28.43,0.3137,1.043,62.7548,0.4389,0,Healthy
0.7611,0.1257,10.198,10.2271,0.181672,39.45,0.85,106.3,35.6,1.2748,18.9,7.8296,35.04,0.7152,2.6605,27.7371,0.3349,2,Stressed
0.004,0.0296,9.8098,9.8099,0.000178,37.92,0.68,46.8,13.6,0.0338,17.0,4.1302,13.59,0.0213,0.0814,832.2437,0.2915,3,Inactive
0.1655,0.1609,9.8359,9.8386,0.017919,38.44,0.16,56.9,24.6,0.3522,63.0,8.3175,35.7,0.283,1.0758,59.0484,0.4325,0,Healthy
0.9123,-0.3607,9.2532,9.3051,0.293859,39.23,0.63,83.8,40.3,1.8298,41.1,10.5074,40.47,0.6517,2.3802,18.5943,0.4811,2,Stressed
0.3999,0.2661,10.0364,10.0479,0.497305,39.4,0.8,106.7,41.3,0.8924,36.3,10.188,42.43,0.6837,3.045,17.7127,0.3869,2,Stressed
0.0201,0.0037,9.8083,9.8083,4.9e-05,37.89,0.71,52.0,16.8,0.0255,30.7,4.6692,22.07,0.0164,0.0664,937.5137,0.3224,3,Inactive
0.1374,0.0127,9.8314,9.8323,0.001982,40.38,1.78,93.1,45.6,0.1715,23.6,17.7505,66.12,0.0477,0.1942,191.4083,0.4903,1,Sick
0.2918,-1.2146,9.7346,9.8144,0.234275,39.25,0.65,106.4,39.0,1.5818,54.1,7.277,30.04,0.6092,2.1629,20.1943,0.3668,2,Stressed
0.048,-0.0074,9.8617,9.8619,0.002725,36.86,1.74,91.2,14.2,0.1071,18.4,17.2607,70.65,0.3115,1.3046,204.9304,0.156,1,Sick
0.6397,0.0246,9.744,9.765,0.020493,38.62,0.02,65.8,20.1,0.7303,65.6,2.4973,5.52,0.0739,0.1807,67.0967,0.3053,0,Healthy
0.1905,0.2771,9.7286,9.7344,0.069256,38.52,0.08,73.6,29.5,0.549,63.2,7.1078,28.58,0.282,1.0497,42.9747,0.4013,0,Healthy
-0.037,-0.0659,9.7951,9.7954,0.004155,40.19,1.59,95.0,15.9,0.1178,16.6,19.5716,69.98,0.3262,1.5448,184.2963,0.1672,1,Sick
-0.1875,0.1303,9.3653,9.3681,0.029227,38.59,0.01,67.2,21.9,0.7625,53.5,5.4477,20.48,0.2912,1.3292,42.3938,0.3259,0,Healthy
-0.2676,-0.7705,10.1221,10.1549,0.179369,39.57,0.97,112.6,45.9,1.3502,14.0,10.3122,42.22,0.6975,2.911,25.724,0.4074,2,Stressed
0.7133,1.292,9.9838,10.0923,0.132831,39.59,0.99,93.0,43.2,2.1792,15.0,9.3882,36.38,0.8925,3.6526,19.2738,0.4651,2,Stressed
0.5524,0.0052,10.1532,10.1682,0.058301,38.52,0.08,73.4,25.4,0.9007,56.5,6.2646,22.91,0.2437,0.9832,51.0598,0.3461,0,Healthy
0.2628,0.3094,10.1247,10.1329,0.03668,38.63,0.03,58.0,25.8,0.887,52.2,4.5337,20.77,0.3008,1.2122,45.2363,0.4447,0,Healthy
0.3883,0.2699,10.0681,10.0792,0.020407,38.55,0.05,69.5,29.3,0.9163,59.4,5.6165,25.14,0.2523,0.9497,63.4429,0.4224,0,Healthy
-0.7459,0.0188,9.4639,9.4933,0.029541,38.41,0.19,65.5,21.7,1.1108,67.6,6.7538,25.75,0.2929,1.1053,44.533,0.3309,0,Healthy
0.01,0.0216,9.8174,9.8174,0.000109,37.71,0.89,47.2,15.1,0.039,20.8,3.967,17.63,0.0158,0.0662,1038.9367,0.3194,3,Inactive
0.0028,-0.0054,9.8005,9.8005,9e-05,37.91,0.69,44.2,11.3,0.0177,17.8,4.2992,17.06,0.0174,0.0569,997.6938,0.2566,3,Inactive
-0.0088,0.0197,9.8062,9.8063,5.4e-05,37.87,0.73,49.0,15.6,0.0323,9.1,3.2463,12.85,0.0171,0.0695,910.9524,0.3182,3,Inactive
-0.1843,0.0406,9.9014,9.9032,0.04492,39.1,0.5,62.7,26.9,0.3164,60.2,8.1382,30.99,0.3072,1.1438,42.166,0.4291,0,Healthy
0.6052,-0.3199,10.3666,10.3892,0.134608,39.67,1.07,106.7,50.8,1.4817,30.9,8.3033,29.98,0.7499,2.4918,21.795,0.4756,2,Stressed
0.1052,-0.1347,10.4228,10.4242,0.101511,39.52,0.92,113.3,35.4,0.8527,19.8,9.7344,37.25,0.8215,2.7572,25.8483,0.3121,2,Stressed
-0.0387,0.0289,9.8827,9.8829,0.001299,37.12,1.48,56.3,13.3,0.1404,13.9,18.9604,71.26,0.2123,1.0364,199.8064,0.2366,1,Sick
0.4063,0.1778,9.9228,9.9327,0.053615,38.58,0.02,62.0,12.7,0.6969,67.5,6.8919,26.88,0.2664,1.0497,43.1455,0.2054,0,Healthy
0.3323,-0.1641,10.2227,10.2295,0.097712,39.41,0.81,92.1,43.7,0.9091,37.4,10.8655,44.48,0.5856,2.2146,28.03,0.4749,2,Stressed
0.8114,-0.2184,9.8859,9.9216,0.111696,39.2,0.6,90.4,47.7,1.1057,40.2,9.3062,37.66,0.8013,3.1756,18.6951,0.527,2,Stressed
-0.3222,1.4501,9.9734,10.0835,0.168946,39.29,0.69,106.4,43.2,1.9358,21.2,9.6254,48.19,0.6489,2.4328,21.8492,0.4065,2,Stressed
-0.4495,-0.0982,9.7332,9.7441,0.185031,39.32,0.72,103.6,40.9,0.6244,12.8,11.6483,48.73,0.5036,2.207,21.8917,0.3945,2,Stressed
0.7625,-0.6261,9.9636,10.0123,0.249743,39.98,1.38,90.2,41.7,1.5422,20.5,9.4635,40.73,0.5672,2.6749,25.8642,0.4625,2,Stressed
-0.0423,0.47,9.6378,9.6494,0.042948,39.04,0.44,61.2,28.6,0.6844,64.3,7.2366,32.74,0.3094,1.5809,54.1366,0.4679,0,Healthy
0.2074,0.3851,9.7216,9.7315,0.039248,38.25,0.35,68.2,26.6,0.6809,72.7,4.9124,21.93,0.2897,1.1238,59.2856,0.3903,0,Healthy
-1.163,0.0032,10.3648,10.4298,0.232699,39.84,1.24,94.5,40.4,1.7209,20.9,10.2137,46.38,0.8189,3.0637,22.545,0.428,2,Stressed
0.0053,0.0201,9.8156,9.8157,5.5e-05,37.95,0.65,41.9,16.3,0.0311,16.3,3.9106,15.05,0.016,0.07,904.4808,0.3886,3,Inactive
0.7575,0.4677,9.82,9.8603,0.016206,38.5,0.1,61.7,29.5,1.2353,72.2,7.1195,36.58,0.3105,1.2584,55.1628,0.4791,0,Healthy
-0.4035,0.1282,9.7258,9.735,0.012576,37.97,0.63,66.6,15.9,0.616,54.0,6.3205,25.58,0.2886,1.1626,46.8707,0.2392,0,Healthy
0.084,0.0458,9.7607,9.7611,0.001784,40.84,2.24,87.7,10.0,0.1792,9.0,16.2205,77.33,0.342,1.4708,210.5081,0.1139,1,Sick
0.0693,0.0069,9.9156,9.9158,0.003728,40.23,1.63,80.0,7.8,0.1818,7.9,19.1514,78.47,0.1301,0.6347,174.2458,0.097,1,Sick
-0.0213,-0.0066,9.7998,9.7998,8.4e-05,37.93,0.67,46.9,12.1,0.0382,32.7,4.1371,14.98,0.0183,0.0701,840.4245,0.2569,3,Inactive
-0.7217,-0.8377,9.8602,9.922,0.070403,39.54,0.94,87.6,38.5,1.6096,36.1,10.0591,35.41,0.6089,2.174,23.7646,0.44,2,Stressed
0.0039,0.3905,10.9387,10.9457,0.192955,39.64,1.04,99.1,50.0,1.5231,27.9,10.0262,38.2,0.588,2.5023,20.176,0.5041,2,Stressed
-0.0615,0.0763,9.9394,9.9398,0.002578,40.29,1.69,62.1,43.2,0.2672,19.9,22.944,71.79,0.1804,0.9558,179.3475,0.6947,1,Sick
0.3322,1.0595,9.3069,9.3729,0.119065,39.56,0.96,108.7,38.7,1.8948,27.0,9.0766,36.92,0.7439,3.4825,28.3516,0.3557,2,Stressed
-0.2395,0.6448,9.414,9.4391,0.240697,39.77,1.17,87.0,55.1,1.2804,37.0,10.1611,43.46,0.809,2.8732,17.9232,0.6325,2,Stressed
-0.0045,-0.0128,9.7893,9.7893,0.003435,40.65,2.05,103.2,52.8,0.038,12.7,17.7997,87.42,0.3102,1.0415,171.2523,0.5111,1,Sick
0.0231,1.0478,9.5067,9.5643,0.06389,39.87,1.27,95.1,39.9,1.3742,17.9,10.9444,49.4,0.6572,2.5548,32.52,0.4195,2,Stressed
0.3214,0.1669,10.2831,10.2894,0.176753,39.52,0.92,118.9,40.6,0.9614,19.9,9.3432,38.3,0.7324,2.6585,19.9342,0.3417,2,Stressed
1.1302,0.6082,10.267,10.3469,0.106126,38.73,0.13,114.2,42.7,2.1955,33.1,10.1966,43.46,0.8016,2.8732,18.6905,0.3741,2,Stressed
0.13,0.1666,10.0731,10.0753,0.030188,38.95,0.35,62.0,24.7,0.5597,62.8,6.8767,28.07,0.274,1.0062,50.5238,0.3981,0,Healthy
0.1012,-0.0324,9.7403,9.7409,0.002846,40.68,2.08,73.8,53.1,0.2033,28.5,19.0737,69.98,0.3256,1.562,182.9254,0.7198,1,Sick
0.0347,0.0503,9.8104,9.8106,0.002168,40.59,1.99,110.0,38.0,0.0853,5.1,17.2563,67.4,0.1995,1.1386,209.0988,0.345,1,Sick
-0.1193,0.2436,9.8428,9.8465,0.004036,40.69,2.09,90.0,15.8,0.3957,6.7,18.3719,87.42,0.304,1.0366,153.9425,0.176,1,Sick
-0.0082,0.0376,9.8108,9.8109,0.002364,36.96,1.64,67.8,8.2,0.0466,11.7,15.2752,73.2,0.3701,2.0624,167.8928,0.1204,1,Sick
-0.27,-1.1181,9.5432,9.6123,0.137462,40.14,1.54,86.7,43.5,1.655,42.9,12.5982,47.92,0.7644,2.8683,24.9837,0.502,2,Stressed
0.3077,-0.2837,9.7022,9.7113,0.027414,38.55,0.05,59.6,27.8,0.6992,53.1,6.5043,26.1,0.3058,1.265,65.7373,0.4659,0,Healthy
-0.1792,0.0461,9.7451,9.7468,0.003438,37.56,1.04,110.4,45.5,0.2903,12.5,18.2795,73.38,0.3769,2.143,186.3582,0.4123,1,Sick
-0.0823,0.0375,9.8291,9.8295,0.002777,36.85,1.75,76.7,50.7,0.1389,18.8,18.7139,88.65,0.1832,0.8157,177.3938,0.6603,1,Sick
-0.0132,0.0048,9.8119,9.812,7.9e-05,37.83,0.77,48.0,15.0,0.02,20.6,4.5222,16.85,0.0155,0.0575,902.004,0.3124,3,Inactive
0.7109,-0.1063,9.6884,9.7151,0.040257,38.29,0.31,82.7,27.7,0.9387,48.2,6.7953,29.12,0.3024,1.2878,47.1607,0.3348,0,Healthy
0.0004,-0.01,9.8006,9.8006,0.000135,38.08,0.52,45.2,15.0,0.0198,27.2,3.1878,13.29,0.0192,0.0754,925.8997,0.3329,3,Inactive
-0.018,0.1001,9.8011,9.8017,0.002074,40.73,2.13,90.1,52.1,0.1269,20.2,17.1039,67.7,0.3018,1.4906,236.0851,0.5786,1,Sick
0.0027,-0.0077,9.8022,9.8022,0.000129,38.04,0.56,46.4,11.1,0.0183,17.6,4.1772,16.03,0.0166,0.0722,981.2933,0.2383,3,Inactive
0.009,0.0153,9.8048,9.8049,9.3e-05,37.83,0.77,45.6,18.5,0.0294,23.2,4.2951,15.47,0.0135,0.054,984.5309,0.405,3,Inactive
0.1209,-0.4126,9.6994,9.7089,0.077366,38.34,0.26,63.0,22.2,0.6441,51.3,7.9584,35.13,0.328,1.2492,45.8191,0.352,0,Healthy
0.0439,-0.1373,10.1236,10.1247,0.076261,39.02,0.42,67.3,27.6,0.4948,54.1,6.9726,26.97,0.2242,0.8628,44.5731,0.4099,0,Healthy
0.0224,-0.007,9.7993,9.7993,8.9e-05,37.95,0.65,42.3,14.0,0.0401,25.4,3.9574,16.96,0.0121,0.0442,964.8783,0.331,3,Inactive
-0.0218,-0.0096,9.8193,9.8193,5.6e-05,38.08,0.52,42.8,14.5,0.0406,17.7,4.1504,15.47,0.0146,0.0509,989.2669,0.3387,3,Inactive
0.0298,-0.0003,9.816,9.8161,0.000896,40.93,2.33,86.7,32.8,0.0361,20.0,18.0361,81.56,0.2421,1.3515,227.6942,0.3785,1,Sick
-0.004,-0.0154,9.8256,9.8257,0.00015,37.94,0.66,46.6,14.5,0.0351,16.2,4.1856,16.03,0.0165,0.0722,946.0741,0.3115,3,Inactive
0.8717,1.1643,10.2216,10.3245,0.335147,39.74,1.14,110.5,53.3,2.4476,11.7,10.5055,44.33,0.7772,3.2905,18.5633,0.4823,2,Stressed
-0.0229,0.0357,9.8062,9.8063,5.6e-05,37.66,0.94,47.5,17.9,0.0624,28.9,5.4532,23.18,0.0209,0.0706,1085.8587,0.3761,3,Inactive
0.0182,0.0028,9.8279,9.8279,0.000244,38.22,0.38,45.2,16.2,0.0389,23.7,4.3651,19.62,0.0181,0.069,712.6979,0.3595,3,Inactive
0.044,0.1602,9.7681,9.7696,0.000883,37.48,1.12,74.2,34.5,0.2461,20.5,19.908,71.56,0.252,1.2599,213.2251,0.4655,1,Sick
-0.0377,0.0115,9.806,9.8061,6e-05,37.97,0.63,45.8,12.8,0.0532,14.5,4.3123,17.48,0.0181,0.068,952.128,0.2804,3,Inactive
0.0136,-0.0001,9.8011,9.8011,7e-05,37.86,0.74,50.9,14.7,0.0225,21.7,4.9597,22.07,0.016,0.0664,910.5112,0.2892,3,Inactive
-0.1894,-0.3,10.0898,10.0961,0.032262,38.35,0.25,61.1,25.7,0.7693,58.2,7.2293,24.7,0.2738,1.1626,50.7392,0.4207,0,Healthy
0.5998,-0.7138,9.7868,9.8311,0.001099,37.66,0.94,125.2,42.2,1.3369,27.1,18.4908,67.9,0.3013,1.3055,190.6166,0.3373,1,Sick
0.0492,0.005,9.8243,9.8244,5.1e-05,37.61,0.99,46.1,15.3,0.0685,10.7,3.8841,13.59,0.0207,0.0814,883.4715,0.3326,3,Inactive
0.5686,0.4787,9.6244,9.653,0.049644,38.63,0.03,77.8,16.6,1.2329,54.0,6.9846,23.2,0.387,1.8876,45.4995,0.2128,0,Healthy
0.1037,0.0456,9.7655,9.7662,0.004429,37.05,1.55,116.3,12.5,0.1938,0.0,15.4919,61.83,0.3653,1.7709,199.1406,0.1072,1,Sick
0.0265,0.0077,9.813,9.813,8.2e-05,37.97,0.63,52.3,14.7,0.0371,32.0,5.0489,20.82,0.0175,0.0667,993.2563,0.2804,3,Inactive
1.9282,0.6608,9.174,9.3977,0.232098,39.9,1.3,112.4,38.0,3.2251,50.0,11.5907,58.77,0.7258,2.6299,23.218,0.3379,2,Stressed
0.8216,-0.2096,10.3257,10.3604,0.219992,39.01,0.41,88.9,42.6,1.5468,65.3,11.281,40.22,0.6134,2.1602,24.626,0.4789,2,Stressed
0.0048,0.0143,9.8005,9.8005,0.000114,38.34,0.26,45.7,15.4,0.0286,18.5,3.7758,17.44,0.0151,0.0659,815.5236,0.3362,3,Inactive
0.0032,0.0078,9.8221,9.8222,9.6e-05,37.89,0.71,44.0,11.6,0.0231,22.7,3.8354,16.4,0.0196,0.0642,1006.1456,0.2635,3,Inactive
0.1067,-0.1061,9.7936,9.7948,0.001296,39.52,0.92,85.4,41.0,0.2292,10.6,20.0629,70.09,0.1635,0.932,245.7086,0.4799,1,Sick
-0.0018,0.0059,9.8182,9.8182,7.7e-05,37.57,1.03,55.9,12.6,0.0159,36.4,3.6131,15.05,0.0166,0.07,904.0285,0.2252,3,Inactive
0.8806,0.2571,10.2253,10.2664,0.226566,39.55,0.95,112.8,46.7,1.553,31.1,9.6171,36.93,0.847,3.8856,21.8163,0.4143,2,Stressed
0.0282,-0.0586,9.6887,9.6889,0.005589,40.4,1.8,85.5,60.1,0.208,2.4,17.7325,75.68,0.1416,0.6347,163.1805,0.7025,1,Sick
-0.0029,0.0166,9.8177,9.8177,6.4e-05,37.97,0.63,43.6,11.2,0.0272,24.1,3.8478,16.79,0.0186,0.0683,1117.3732,0.2556,3,Inactive
-0.0367,0.0078,9.809,9.8091,8e-05,37.49,1.11,44.0,14.9,0.0455,23.5,3.6155,12.67,0.0145,0.0605,896.2737,0.3381,3,Inactive
0.154,0.1408,10.0609,10.0631,0.065248,38.39,0.21,68.2,24.7,0.5457,63.7,5.8151,21.69,0.3158,1.3467,46.6811,0.3627,0,Healthy
0.0537,-0.0423,9.836,9.8362,0.00125,39.73,1.13,96.5,15.5,0.122,15.0,18.2041,83.39,0.1508,0.8867,208.0746,0.1605,1,Sick
0.9917,0.2817,9.1997,9.2573,0.072137,39.43,0.83,98.7,31.3,1.8836,24.1,7.8077,33.46,0.5716,2.2965,21.9386,0.3169,2,Stressed
-0.1917,0.1417,9.6625,9.6654,0.093043,38.65,0.05,57.4,23.9,0.4809,65.3,5.8272,21.81,0.3471,1.3398,44.3713,0.4162,0,Healthy
0.3759,-0.073,9.9916,9.9989,0.017781,38.84,0.24,66.6,25.2,0.6305,53.8,7.07,36.58,0.2977,1.0176,63.6387,0.379,0,Healthy
-0.0283,-0.0643,9.8028,9.8031,0.00232,40.55,1.95,93.7,9.7,0.0998,9.9,15.5508,73.38,0.3742,2.143,174.0743,0.104,1,Sick
-0.0051,0.0042,9.8188,9.8188,7.4e-05,38.07,0.53,46.5,15.4,0.0181,16.5,4.6542,17.65,0.0179,0.069,1069.9283,0.3312,3,Inactive
-0.0055,0.0002,9.8284,9.8284,5e-05,37.38,1.22,49.2,13.6,0.0241,25.4,3.2612,11.8,0.015,0.0663,1042.0039,0.2765,3,Inactive
0.0297,0.0316,9.7597,9.7598,0.001079,37.38,1.22,84.3,13.4,0.1116,8.2,23.4342,78.98,0.0713,0.3348,255.9995,0.1591,1,Sick
0.019,0.0049,9.8057,9.8057,5.9e-05,37.49,1.11,48.2,14.2,0.0282,23.8,3.8103,17.65,0.0163,0.0662,984.5256,0.2941,3,Inactive
-0.0041,-0.0006,9.8243,9.8243,9.3e-05,37.99,0.61,49.7,12.3,0.019,22.2,3.9301,16.88,0.0135,0.0514,922.5888,0.2475,3,Inactive
0.0133,0.0018,9.8084,9.8084,0.000109,37.6,1.0,49.2,13.7,0.0166,16.9,4.312,15.77,0.0207,0.0721,974.0329,0.2786,3,Inactive
-0.0158,0.0047,9.819,9.819,0.000132,37.68,0.92,49.3,15.8,0.0295,23.0,3.7373,13.46,0.0153,0.0621,886.7608,0.32,3,Inactive
0.8396,0.5296,9.7215,9.7721,0.218881,39.8,1.2,106.8,47.9,1.4578,18.0,10.9164,50.52,0.6705,2.7389,17.3767,0.4482,2,Stressed
0.0532,0.0361,9.8187,9.8189,9.6e-05,38.02,0.58,52.2,14.5,0.098,15.5,3.5108,13.84,0.022,0.0864,858.9494,0.2785,3,Inactive
1.1988,0.5749,9.9407,10.0292,0.069214,39.73,1.13,104.9,45.0,1.9043,33.8,10.8462,44.34,0.7002,2.9172,25.1935,0.4287,2,Stressed
0.2154,0.0698,9.793,9.7956,0.001737,39.81,1.21,92.4,49.3,0.3023,4.8,18.2207,79.27,0.189,0.7606,185.5931,0.5333,1,Sick
0.6943,0.4218,9.087,9.1232,0.356933,39.45,0.85,108.9,37.8,1.8391,36.9,9.7798,42.7,0.6788,2.4315,18.1124,0.3473,2,Stressed
-0.4895,0.2725,9.7758,9.7918,0.001041,37.35,1.25,79.3,59.3,0.7962,8.5,21.249,75.4,0.1328,0.762,225.5255,0.7476,1,Sick
-0.4791,0.0919,9.7629,9.7751,0.083368,38.43,0.17,75.0,25.0,0.6181,57.6,7.0493,33.62,0.2554,0.9236,50.2447,0.3339,0,Healthy
0.0846,-0.0087,9.8318,9.8322,0.001837,36.86,1.74,102.3,39.5,0.1152,5.8,21.3533,71.28,0.1803,0.9292,177.7576,0.3862,1,Sick
-1.3183,0.5676,9.7373,9.8425,0.069926,39.56,0.96,97.6,37.2,1.9587,25.5,7.0926,27.83,0.6919,2.8782,23.8891,0.3812,2,Stressed
1.4353,0.2466,10.2338,10.3369,0.195184,39.57,0.97,82.1,44.1,2.1057,37.6,12.0143,54.22,0.607,2.3006,21.7849,0.5365,2,Stressed
-0.0658,0.1139,9.7516,9.7525,0.003587,41.03,2.43,59.9,52.6,0.2381,29.0,22.7264,71.28,0.1769,0.9216,178.8203,0.8784,1,Sick
-0.0359,-0.3357,10.1463,10.1519,0.075303,38.59,0.01,57.8,26.2,0.708,55.2,7.1301,25.71,0.2683,1.1011,40.5473,0.4534,0,Healthy
0.5139,0.0437,10.2228,10.2358,0.07082,39.29,0.69,67.9,28.1,0.9704,62.1,7.7879,38.36,0.3027,1.1758,38.8443,0.4134,0,Healthy
0.8343,0.5443,9.7888,9.8394,0.091033,39.12,0.52,92.2,42.9,1.3997,25.9,8.7919,34.48,0.4905,2.2415,26.0695,0.4651,2,Stressed
0.6743,1.4332,9.7218,9.85,0.136289,39.27,0.67,109.9,48.4,2.1957,30.8,9.9698,42.54,0.4986,2.2415,26.0582,0.44,2,Stressed
0.0216,0.0297,9.8222,9.8223,5.9e-05,37.7,0.9,40.9,10.5,0.0635,10.1,3.8439,16.79,0.0174,0.0683,1028.0113,0.2557,3,Inactive
0.5146,0.7812,9.8036,9.8481,0.000568,36.76,1.84,65.4,46.8,1.3021,15.1,20.1663,79.2,0.3553,1.6449,239.7863,0.7148,1,Sick
0.0392,-0.0133,9.7953,9.7954,0.000203,37.8,0.8,49.8,10.8,0.0671,14.9,4.0616,15.86,0.0181,0.0777,871.0525,0.2163,3,Inactive
1.1797,0.8456,9.6965,9.8045,0.251517,38.93,0.33,96.0,37.1,2.1388,15.2,10.0795,39.38,0.6415,2.8979,21.9542,0.3865,2,Stressed
0.329,0.3192,9.7252,9.736,,39.03,0.43,60.3,26.0,0.733,56.9,,0.0,,0.0,4868.0233,0.4322,0,Healthy
0.4586,-0.0343,9.8077,9.8185,0.042431,38.88,0.28,63.8,18.9,0.4952,53.1,6.769,29.4,0.2385,0.9912,41.199,0.2966,0,Healthy
0.5722,0.1064,9.7705,9.7878,0.064322,38.84,0.24,45.3,20.1,0.7181,51.7,8.5003,34.5,0.2732,1.0229,45.864,0.4434,0,Healthy
0.2378,-0.0018,9.8168,9.8197,0.056937,38.52,0.08,63.5,19.5,0.2464,44.8,6.3906,27.28,0.3242,1.043,52.8332,0.3074,0,Healthy
0.9546,0.858,10.1974,10.2779,0.043531,39.2,0.6,131.2,32.0,2.2001,31.2,10.4275,49.4,0.6508,2.3993,26.9193,0.2436,2,Stressed
0.0043,-0.0094,9.8012,9.8012,9.2e-05,37.91,0.69,54.6,15.3,0.0224,18.1,4.2071,16.39,0.0134,0.0507,949.1806,0.2807,3,Inactive
0.1656,-0.0002,9.7747,9.7761,0.001514,40.73,2.13,73.5,12.5,0.2012,19.6,19.1994,71.26,0.2078,1.0364,199.5097,0.1698,1,Sick
0.1458,0.0751,9.8062,9.8075,0.001223,40.46,1.86,100.4,14.3,0.2248,15.6,22.1254,87.16,0.1214,0.5074,219.0176,0.1425,1,Sick
-0.0907,0.0214,9.7545,9.7549,0.0427,39.14,0.54,83.4,27.2,0.1676,56.7,6.3761,29.04,0.2792,1.0379,53.7612,0.3255,0,Healthy
0.0456,-0.0473,9.8225,9.8227,0.003214,40.87,2.27,107.8,45.0,0.1054,30.3,17.1875,88.65,0.2427,1.055,169.3604,0.4173,1,Sick
0.7946,-0.1623,9.7664,9.8,0.219329,39.62,1.02,85.7,35.2,1.0005,23.2,12.493,45.09,0.6288,2.988,19.7566,0.4111,2,Stressed
0.0256,0.034,9.8065,9.8066,2.8e-05,38.27,0.33,38.3,17.4,0.0631,31.4,3.9537,16.33,0.0196,0.0695,913.6641,0.4534,3,Inactive
0.0215,0.0202,9.8033,9.8033,9.3e-05,37.88,0.72,50.6,12.0,0.0484,29.4,4.8633,23.18,0.018,0.0706,940.1014,0.2374,3,Inactive
0.2534,-1.0146,9.8138,9.8694,0.211719,39.2,0.6,97.0,42.7,1.2718,49.0,8.5893,34.12,0.8007,4.0182,19.9335,0.4401,2,Stressed
-0.0568,0.0637,9.7855,9.7859,0.004863,40.69,2.09,51.8,40.5,0.1449,16.2,20.953,76.13,0.2083,1.0137,167.8537,0.7815,1,Sick
0.3106,0.3157,9.9788,9.9886,0.007198,38.39,0.21,57.7,23.6,0.7951,48.8,7.4904,36.58,0.3328,1.3522,58.46,0.4085,0,Healthy
-0.05,-0.0221,9.8434,9.8436,0.00245,36.62,1.98,111.5,7.4,0.1056,17.7,17.6252,77.64,0.2807,1.1458,184.9081,0.0665,1,Sick
-0.1239,-0.1531,10.0338,10.0357,0.057482,38.16,0.44,66.7,29.8,0.5008,60.3,6.6616,24.6,0.2342,0.9784,38.1348,0.4476,0,Healthy
0.3575,0.0468,10.0076,10.0141,0.229223,39.19,0.59,111.8,32.7,0.6019,16.1,9.9508,45.13,0.8126,3.0495,20.7357,0.2927,2,Stressed
0.6319,0.2983,9.8354,9.8602,0.001854,40.1,1.5,86.0,11.2,0.9556,12.2,15.6034,60.13,0.319,1.6687,199.6941,0.1303,1,Sick
-0.0219,-0.0047,9.8727,9.8727,0.002633,40.63,2.03,126.4,35.9,0.0892,9.3,17.5573,67.49,0.2912,1.4051,184.1808,0.2843,1,Sick
-0.3215,1.2207,10.0089,10.0882,0.114017,38.28,0.32,81.0,46.1,1.7411,22.0,11.586,42.54,0.75,3.2352,22.7557,0.5689,2,Stressed
0.907,-0.1104,9.8763,9.9185,0.026736,38.67,0.07,66.7,16.2,1.0837,43.9,6.2934,27.43,0.3151,1.1404,53.3306,0.2427,0,Healthy
0.0432,0.0543,9.8091,9.8094,0.000557,40.45,1.85,81.8,46.3,0.0984,4.7,19.344,73.46,0.4251,1.4343,213.2611,0.5663,1,Sick
0.0736,-0.3664,9.6488,9.6561,0.031307,38.5,0.1,75.2,27.1,0.6011,58.4,6.9262,25.4,0.2367,0.9129,46.4217,0.3609,0,Healthy
0.0229,-0.0076,9.807,9.807,5e-05,37.94,0.66,46.7,16.2,0.0335,20.5,4.3303,16.7,0.0148,0.0579,1049.4729,0.347,3,Inactive
-0.1566,0.3554,9.8104,9.8181,0.003695,40.37,1.77,67.9,11.9,0.5124,9.2,20.9619,87.42,0.3841,1.442,170.8649,0.1759,1,Sick
0.2415,0.0181,9.6592,9.6623,0.065179,38.57,0.03,64.4,25.8,0.4104,52.7,7.9127,35.13,0.335,1.2492,45.6036,0.4005,0,Healthy
0.0028,0.0346,9.8256,9.8257,7.1e-05,38.11,0.49,45.2,14.2,0.053,22.0,4.0637,16.75,0.0158,0.0664,1079.7912,0.3148,3,Inactive
0.0941,-0.032,9.697,9.6975,0.001587,36.71,1.89,99.2,12.2,0.2391,11.2,13.7808,53.82,0.2579,1.2335,179.887,0.1226,1,Sick
-0.0439,0.0235,9.7557,9.7558,0.001682,37.06,1.54,104.3,9.7,0.1217,0.0,20.8655,74.14,0.1081,0.4265,181.0586,0.0926,1,Sick
-0.0717,0.1031,9.8644,9.8652,0.002722,41.09,2.49,88.6,53.6,0.2292,10.9,21.5233,106.85,0.1916,1.0496,193.5036,0.6055,1,Sick
-0.2463,-0.5523,9.6853,9.7041,0.139044,39.92,1.32,93.4,38.0,0.9233,37.6,7.8444,32.75,0.6072,2.5496,27.2482,0.4068,2,Stressed
-0.3459,-0.0649,9.8186,9.8249,0.02063,38.41,0.19,68.6,21.0,0.4194,72.4,7.0404,31.92,0.3117,1.23,57.8462,0.3063,0,Healthy
0.746,0.6034,9.9052,9.9515,0.066339,38.53,0.07,69.9,31.4,1.4445,60.8,5.6488,21.81,0.3437,1.3398,48.0093,0.4489,0,Healthy
0.7771,1.7859,9.3118,9.5133,0.206427,39.14,0.54,110.9,40.2,3.0612,30.3,12.6259,56.56,0.8119,3.2071,23.5913,0.362,2,Stressed
0.6947,-0.1218,9.7643,9.7898,0.002042,40.47,1.87,95.6,50.2,0.8621,23.7,15.8063,65.2,0.4462,2.0943,188.6407,0.5254,1,Sick
-0.0377,0.0047,9.8159,9.816,0.000121,37.96,0.64,44.8,16.8,0.0483,26.2,3.9891,16.69,0.0173,0.0657,915.4981,0.3751,3,Inactive
-0.005,0.0036,9.8148,9.8148,7.6e-05,37.89,0.71,44.5,12.3,0.0135,23.9,4.1618,18.12,0.0126,0.0461,962.6519,0.2765,3,Inactive
0.0619,0.0046,9.7521,9.7523,0.003182,37.0,1.6,118.1,38.4,0.1244,20.6,15.854,72.36,0.215,1.0997,187.6403,0.3256,1,Sick
-0.0433,-0.5311,10.1299,10.1439,0.096739,39.42,0.82,96.2,42.0,0.8943,26.3,9.2754,33.0,0.7288,2.9899,21.9377,0.4366,2,Stressed
1.316,0.4655,9.4487,9.5513,0.124865,39.67,1.07,101.5,40.1,2.1428,18.8,8.6084,37.95,0.5819,2.3595,25.1861,0.3948,2,Stressed
0.0251,-0.0951,9.8395,9.84,0.073199,38.62,0.02,71.6,19.0,0.1496,47.2,7.3374,28.82,0.2777,1.1252,43.0411,0.2655,0,Healthy
-0.045,0.376,9.6463,9.6537,0.053619,38.59,0.01,67.8,26.5,0.5848,72.7,5.8053,22.34,0.316,1.1778,49.3142,0.3905,0,Healthy
-0.1246,1.1111,9.7174,9.7816,0.105513,39.03,0.43,95.9,48.7,1.3283,42.2,8.412,34.38,0.7032,2.7446,21.681,0.5072,2,Stressed
0.044,0.0021,9.8195,9.8196,7.4e-05,38.16,0.44,43.0,14.8,0.0557,26.2,4.2313,17.06,0.0182,0.0569,1046.5292,0.3444,3,Inactive
1.1553,0.6931,9.7539,9.8465,0.001382,41.17,2.57,85.6,12.0,1.9045,11.5,16.1957,70.28,0.3992,1.8551,221.593,0.1403,1,Sick
0.067,0.0791,9.9133,9.9139,0.02773,39.03,0.43,68.0,23.7,0.2494,55.6,7.4962,34.38,0.283,1.1737,60.591,0.3479,0,Healthy
-1.7059,-0.6563,9.667,9.8383,0.13278,39.64,1.04,94.8,40.8,2.5052,37.7,8.3121,30.99,0.6202,2.4933,28.817,0.4308,2,Stressed
0.0551,0.0057,9.8062,9.8064,0.000205,37.99,0.61,46.3,10.7,0.0646,24.9,4.2465,15.22,0.0189,0.0575,771.3602,0.2319,3,Inactive
0.0568,0.0132,9.7623,9.7625,0.001716,37.02,1.58,39.5,9.1,0.1177,26.1,19.3697,91.57,0.177,0.8293,174.4343,0.2298,1,Sick
-0.0173,0.0609,9.7788,9.779,0.002143,40.26,1.66,77.7,32.0,0.1095,24.8,13.4622,48.63,0.3367,1.4159,183.0749,0.412,1,Sick
0.0941,-0.0642,9.7176,9.7182,0.00402,39.96,1.36,117.3,67.9,0.2508,16.4,19.4559,80.21,0.4144,1.8254,182.2052,0.5789,1,Sick
0.5218,0.2694,9.508,9.5261,0.023128,38.46,0.14,73.6,24.4,1.0933,70.1,7.0687,29.84,0.2948,1.2454,57.0473,0.3315,0,Healthy
0.0072,-0.0042,9.8008,9.8008,8e-05,37.79,0.81,45.1,12.3,0.0205,17.5,3.4597,15.66,0.0184,0.0684,903.4666,0.2736,3,Inactive
0.5922,0.1202,9.659,9.6779,0.080155,38.72,0.12,66.1,27.5,0.8634,59.9,6.7666,29.11,0.2229,0.9912,45.89,0.4167,0,Healthy
0.0293,0.2102,9.7424,9.7447,0.055395,38.3,0.3,57.6,17.4,0.307,67.8,6.8781,27.84,0.2963,1.0456,47.7724,0.302,0,Healthy
0.02,0.0199,9.8057,9.8057,4.2e-05,38.0,0.6,43.8,14.1,0.0442,35.5,3.8679,16.79,0.0184,0.0683,1134.6321,0.3212,3,Inactive
0.024,0.0035,9.8138,9.8138,0.000107,37.93,0.67,40.3,12.2,0.0313,21.5,4.4294,16.57,0.016,0.0645,1018.116,0.3021,3,Inactive
0.7012,-0.0072,9.5427,9.5684,0.042393,38.04,0.56,56.8,16.6,0.9757,57.4,7.1518,27.72,0.3055,0.9608,46.2989,0.2932,0,Healthy
0.017,-0.0029,9.8008,9.8008,0.000107,37.95,0.65,44.4,13.9,0.029,27.6,3.9325,13.59,0.0204,0.0814,827.3413,0.3139,3,Inactive
-0.0396,0.6125,10.5526,10.5705,0.27203,39.85,1.25,121.6,42.9,1.3947,18.6,12.5201,43.25,0.8507,3.595,20.0464,0.3528,2,Stressed
0.3882,0.5235,9.5083,9.5306,0.049798,38.7,0.1,53.7,19.6,1.2134,46.9,7.2326,27.72,0.3163,1.0349,47.407,0.3661,0,Healthy
0.0298,-0.0982,9.8256,9.8262,0.017691,38.39,0.21,60.3,22.6,0.1436,45.9,7.8109,30.15,0.2859,1.311,52.682,0.3751,0,Healthy
0.9745,0.6233,10.4239,10.4879,0.219838,39.03,0.43,87.2,39.3,2.2118,35.3,7.8985,30.93,0.5631,2.0687,23.5099,0.4514,2,Stressed
0.712,0.3358,9.9083,9.9395,0.037648,38.17,0.43,62.9,27.1,1.146,46.3,5.9453,27.43,0.3159,1.1404,52.9471,0.4309,0,Healthy
-0.2479,-0.1207,9.7877,9.7916,0.037567,38.95,0.35,68.7,29.0,0.3909,45.9,7.7734,37.75,0.2952,1.1068,49.9214,0.4221,0,Healthy
0.8958,0.427,9.1286,9.1824,0.362299,39.61,1.01,108.4,40.1,2.0041,33.1,12.1603,54.69,0.695,2.7387,20.0387,0.3696,2,Stressed
0.047,0.0913,9.8615,9.8621,0.013138,38.32,0.28,71.4,26.4,0.1898,49.1,6.7862,21.33,0.3667,1.5665,55.4102,0.3704,0,Healthy
0.3014,0.1112,10.5975,10.6023,0.186858,39.24,0.64,95.4,28.5,1.2001,40.3,10.417,36.93,0.6859,3.0631,23.5592,0.299,2,Stressed
-0.3515,-0.2523,9.8537,9.8632,0.022813,38.97,0.37,69.0,20.0,0.6475,63.1,6.7568,25.33,0.329,1.2871,49.3439,0.2905,0,Healthy
0.33,-0.0317,9.5004,9.5062,0.046348,38.06,0.54,64.7,25.7,0.6713,59.9,6.8148,24.64,0.2861,0.9351,44.6352,0.3974,0,Healthy
0.396,-0.0678,10.8507,10.8582,0.368987,39.51,0.91,80.3,41.6,1.5045,23.5,9.1027,36.77,0.5347,2.7854,19.7184,0.5184,2,Stressed
0.0142,-0.0066,9.795,9.795,0.000129,38.03,0.57,45.8,15.5,0.0359,5.2,4.2191,19.39,0.0179,0.062,947.126,0.339,3,Inactive
0.0211,-0.0112,9.8142,9.8142,7.8e-05,37.85,0.75,41.0,14.4,0.0365,16.9,3.7237,13.59,0.0164,0.0563,1054.8654,0.351,3,Inactive
0.0608,-0.0096,9.8131,9.8133,0.000157,38.01,0.59,50.1,15.5,0.0735,22.5,4.1323,16.95,0.0173,0.067,951.5355,0.3098,3,Inactive
0.7629,0.1491,9.0454,9.0788,0.163877,39.14,0.54,104.6,46.7,1.6766,38.5,9.161,36.77,0.5468,2.7854,21.4433,0.446,2,Stressed
0.0222,-0.0183,9.8134,9.8134,3.3e-05,38.02,0.58,45.4,13.5,0.0439,19.4,4.53,23.61,0.0166,0.0699,886.3108,0.2975,3,Inactive
0.0178,0.0236,9.8205,9.8205,6.9e-05,38.09,0.51,42.7,10.9,0.0519,13.1,3.1042,11.39,0.0131,0.0502,909.801,0.2559,3,Inactive
0.301,0.3681,9.7624,9.774,0.016785,38.75,0.15,75.4,22.7,0.7167,58.5,8.5405,34.34,0.2367,0.9255,61.0873,0.3012,0,Healthy
0.1251,0.0208,9.8492,9.85,0.001711,39.79,1.19,86.7,42.8,0.1852,11.6,15.7145,66.33,0.244,1.2241,178.4822,0.494,1,Sick
0.0196,-0.0239,9.7551,9.7551,0.002533,36.79,1.81,91.4,38.1,0.0985,0.0,15.7795,70.78,0.352,1.4416,178.9615,0.4172,1,Sick
0.157,-0.2659,9.8007,9.8056,0.001367,41.19,2.59,72.9,46.5,0.4322,15.4,18.9206,73.27,0.2374,1.0067,223.781,0.6382,1,Sick
0.1401,-0.1009,9.7998,9.8013,0.016024,38.68,0.08,65.5,21.6,0.2512,46.8,7.7697,29.6,0.236,0.9255,52.7606,0.329,0,Healthy
0.0467,-0.1584,9.6632,9.6646,0.039331,38.4,0.2,59.1,17.9,0.352,47.9,5.5176,14.31,0.4462,1.4331,48.9879,0.303,0,Healthy
0.1315,-1.3295,9.5835,9.6762,0.204464,39.59,0.99,107.2,41.0,1.6874,32.4,10.9819,50.52,0.6535,2.7389,17.4355,0.382,2,Stressed
-0.1803,1.0404,9.9224,9.9784,0.173366,39.75,1.15,102.0,31.2,1.3331,29.9,10.2059,40.92,0.7305,3.121,22.1986,0.3055,2,Stressed
0.0179,-0.0012,9.8008,9.8008,0.001748,37.2,1.4,79.0,8.4,0.0283,0.0,19.3128,78.21,0.3776,1.4374,225.3473,0.1065,1,Sick
0.0348,0.0098,9.8061,9.8061,0.000145,37.55,1.05,45.3,14.1,0.0485,21.7,4.2419,17.86,0.0161,0.0674,831.5019,0.3102,3,Inactive
-0.0571,-0.0381,9.7203,9.7206,0.606833,40.2,1.6,126.5,38.3,0.1849,0.0,10.576,41.45,0.7682,2.7846,18.1647,0.3024,2,Stressed
-0.1839,0.0498,9.9483,9.9501,0.018969,38.83,0.23,69.6,26.1,0.3721,69.7,8.2047,35.77,0.2779,1.0689,51.4355,0.3754,0,Healthy
0.0179,0.011,9.8187,9.8187,0.000196,38.11,0.49,44.5,12.5,0.0376,20.1,4.1606,16.93,0.0175,0.0675,840.9766,0.28,3,Inactive
-0.4157,0.2612,10.1446,10.1564,0.078264,38.16,0.44,61.9,18.2,1.0114,52.7,7.5097,25.17,0.2443,1.0402,49.4101,0.2942,0,Healthy
0.0158,-0.0168,9.8285,9.8285,0.000152,37.9,0.7,46.5,17.2,0.051,28.3,3.586,12.53,0.016,0.0559,879.2291,0.3712,3,Inactive
0.0397,0.0968,9.8368,9.8373,0.002156,37.08,1.52,96.0,52.7,0.1632,13.8,17.0432,62.36,0.4109,1.8249,159.5632,0.5491,1,Sick
-0.1263,0.0591,10.1582,10.1591,0.065018,38.48,0.12,64.2,24.9,0.5336,52.5,6.7635,29.12,0.3047,1.2878,44.2188,0.3885,0,Healthy
-0.0188,0.0231,9.8123,9.8124,0.000148,37.83,0.77,53.5,16.0,0.0442,16.1,4.8075,24.26,0.0164,0.0851,783.4615,0.2994,3,Inactive
0.0015,0.0151,9.7951,9.7951,0.000121,37.94,0.66,47.6,14.8,0.0315,27.2,4.8436,16.14,0.018,0.0838,1012.7856,0.3104,3,Inactive
-0.0402,-0.0487,9.8473,9.8475,0.002649,37.07,1.53,80.5,49.4,0.1262,6.8,16.361,69.02,0.4186,1.6356,170.5255,0.6136,1,Sick
-1.2516,0.8923,9.7967,9.9166,0.081511,39.32,0.72,96.6,40.0,2.1573,28.5,9.5983,36.97,0.7259,2.9623,27.3038,0.4138,2,Stressed
-0.0739,0.0974,9.7511,9.7519,0.002187,40.34,1.74,96.1,50.6,0.2302,13.2,19.0079,80.21,0.091,0.5331,225.5678,0.5268,1,Sick
0.0138,0.0209,9.7984,9.7984,0.000201,37.99,0.61,42.7,16.9,0.0463,21.8,5.0059,20.2,0.0199,0.0681,839.0474,0.3946,3,Inactive
0.6073,0.2896,9.8997,9.9225,0.038189,38.31,0.29,72.8,22.7,0.9865,51.8,7.4277,27.64,0.3134,1.2795,52.7465,0.3123,0,Healthy
0.7407,0.9982,10.1216,10.1976,0.313688,39.41,0.81,92.7,43.5,2.0505,26.2,8.8342,37.71,0.7783,3.8237,16.8908,0.4689,2,Stressed
-0.0004,-0.0185,9.8046,9.8047,4.8e-05,37.93,0.67,48.0,13.7,0.0242,29.9,3.9919,18.12,0.0119,0.0492,998.5135,0.2844,3,Inactive
0.0527,-0.0136,9.8038,9.804,3.8e-05,37.68,0.92,59.3,13.1,0.0726,17.8,4.7959,18.69,0.0173,0.058,1041.586,0.2202,3,Inactive
-0.0101,-0.0147,9.809,9.809,8.9e-05,37.93,0.67,47.1,14.5,0.0258,20.6,3.9923,14.98,0.0203,0.0875,872.7667,0.3087,3,Inactive
-0.0233,0.0071,9.8555,9.8555,0.002532,40.91,2.31,96.4,38.5,0.0759,18.9,16.9406,68.01,0.3186,1.5319,185.735,0.3997,1,Sick
0.036,0.0301,9.8229,9.823,0.000109,37.95,0.65,42.2,13.5,0.079,27.9,4.5699,16.9,0.0174,0.0629,847.3365,0.3196,3,Inactive
0.5964,-0.5461,8.7459,8.7832,0.434916,39.52,0.92,87.0,34.8,2.2066,21.4,8.6123,39.27,0.8133,3.3125,18.1273,0.4006,2,Stressed
0.5203,0.6885,10.0385,10.0756,0.157322,39.6,1.0,95.9,47.7,1.4373,40.7,8.6415,37.95,0.5677,2.2965,23.2394,0.4972,2,Stressed
0.3512,0.3267,10.0266,10.0381,0.04632,38.73,0.13,63.9,31.9,0.8945,61.9,8.3072,40.15,0.2995,1.0925,48.6193,0.499,0,Healthy
0.254,0.2796,9.5273,9.5348,0.231444,38.83,0.23,103.8,39.8,0.8163,9.9,8.2613,36.37,0.6969,2.9449,21.9131,0.3832,2,Stressed
0.0143,-0.0046,9.8061,9.8061,2.7e-05,38.16,0.44,49.8,14.5,0.0228,20.8,4.1561,16.53,0.0183,0.0594,1015.5005,0.2912,3,Inactive
0.3359,0.5848,9.6475,9.671,0.030717,38.41,0.19,44.2,22.4,1.0832,46.7,8.3466,36.44,0.3001,1.1992,41.9711,0.5078,0,Healthy
0.2513,0.3161,9.2016,9.2104,0.337743,40.24,1.64,92.6,57.3,1.1759,25.8,8.2415,33.35,0.6626,2.4315,19.641,0.6186,2,Stressed
0.2763,0.4318,10.247,10.2598,0.051242,38.49,0.11,62.9,26.8,1.1451,58.3,6.8378,26.4,0.2725,0.9894,41.9958,0.4265,0,Healthy
0.002,-0.0079,9.8042,9.8042,8.3e-05,38.0,0.6,46.2,16.1,0.0157,26.4,3.1036,11.38,0.0147,0.0429,1106.2544,0.3474,3,Inactive
0.0074,0.0181,9.8174,9.8174,4.9e-05,37.83,0.77,49.7,15.9,0.0329,20.3,4.2932,18.66,0.0193,0.0689,981.6418,0.3195,3,Inactive
-0.0128,0.043,9.8105,9.8106,0.000897,40.9,2.3,101.3,11.7,0.0563,13.4,16.2471,73.08,0.0763,0.2718,182.8563,0.1157,1,Sick
0.6031,0.355,9.1001,9.1269,0.086297,39.88,1.28,92.1,45.0,1.668,32.5,9.9756,37.29,0.6169,2.4634,30.2988,0.4885,2,Stressed
-0.0042,0.003,9.7996,9.7996,0.000104,37.87,0.73,50.1,18.6,0.0176,33.8,5.1795,23.97,0.0143,0.0641,949.4358,0.3721,3,Inactive
0.0168,0.0085,9.7947,9.7948,6.4e-05,37.66,0.94,46.3,17.4,0.0406,14.7,5.0359,16.57,0.0167,0.06,977.5478,0.3752,3,Inactive
0.0293,0.008,9.8049,9.8049,0.000118,37.52,1.08,52.2,14.8,0.0424,16.4,4.5172,16.05,0.0144,0.0654,785.6651,0.2834,3,Inactive
-0.1717,0.7477,9.774,9.8041,0.1518,39.64,1.04,109.9,48.6,0.9554,10.5,10.794,44.48,0.5864,2.2146,28.3343,0.4422,2,Stressed
0.6755,0.2887,10.2417,10.268,0.126142,40.14,1.54,101.5,36.7,1.3959,26.6,10.5893,41.47,0.8086,3.0721,29.2366,0.3613,2,Stressed
0.3413,0.1818,9.8487,9.8563,0.016575,38.88,0.28,61.6,31.4,0.5618,60.2,7.3082,29.04,0.295,1.3167,62.1809,0.5097,0,Healthy
0.0177,0.0182,9.7876,9.7876,0.0001,37.62,0.98,50.7,12.7,0.0583,13.5,4.4986,15.77,0.0209,0.0721,926.636,0.251,3,Inactive
0.0679,0.0097,9.7497,9.7499,0.003612,39.94,1.34,73.2,17.1,0.1379,21.3,20.3867,83.59,0.4119,1.442,175.1148,0.2339,1,Sick
-0.0079,0.0215,9.8104,9.8104,4.4e-05,38.25,0.35,48.7,12.4,0.0297,18.7,4.1787,18.66,0.0192,0.0689,1014.7781,0.2546,3,Inactive
-0.0423,-0.0325,9.879,9.8791,0.001323,39.9,1.3,87.3,48.1,0.1438,23.0,20.4336,105.14,0.3465,1.6449,244.2007,0.5509,1,Sick
-0.001,0.1022,9.9199,9.9204,0.004763,36.43,2.17,93.6,42.1,0.2131,17.9,12.6898,52.61,0.2556,1.2187,170.5226,0.4494,1,Sick
0.0882,0.0,9.7743,9.7747,0.006593,40.75,2.15,88.1,52.0,0.1239,3.6,14.5033,56.93,0.4035,1.8249,162.5211,0.5903,1,Sick
0.0166,0.0311,9.8008,9.8009,8.5e-05,38.16,0.44,46.8,15.4,0.0569,15.2,3.1145,14.01,0.0161,0.0652,895.8529,0.329,3,Inactive
0.3497,0.7281,9.4384,9.4729,0.307862,39.13,0.53,111.1,46.1,1.4494,31.1,10.4553,42.7,0.6504,2.3517,17.0155,0.4151,2,Stressed
0.1364,0.1493,9.8318,9.8339,0.019394,38.82,0.22,53.8,19.7,0.3076,51.6,6.4434,22.99,0.2452,1.0418,49.0465,0.3667,0,Healthy
0.0276,0.0235,9.8039,9.804,8.3e-05,38.22,0.38,59.1,16.9,0.0573,30.1,4.504,17.07,0.0186,0.0674,904.3184,0.2866,3,Inactive
-0.5473,-0.0125,9.8922,9.9073,0.004162,40.57,1.97,77.0,34.5,0.642,19.0,14.7479,56.93,0.4069,1.8249,156.2061,0.4481,1,Sick
0.2503,-0.001,10.0195,10.0226,0.041655,39.02,0.42,55.1,22.3,0.4608,52.0,6.7647,28.54,0.3061,1.216,47.5252,0.4054,0,Healthy
0.7704,0.0914,10.0736,10.1035,0.037096,38.5,0.1,67.4,26.0,1.1255,65.5,5.7191,26.45,0.2406,0.8678,48.6672,0.3854,0,Healthy
0.0326,0.0027,9.8231,9.8232,0.003631,40.96,2.36,114.4,48.6,0.0484,27.2,17.6547,83.74,0.2156,1.1267,179.2777,0.4248,1,Sick
0.0149,0.0958,9.8933,9.8938,0.004133,40.03,1.43,76.2,46.0,0.194,18.6,15.3962,61.06,0.3537,1.201,200.1275,0.604,1,Sick
0.0281,-0.0013,9.8183,9.8183,0.000141,38.16,0.44,48.4,17.5,0.0377,29.1,3.4035,14.44,0.0181,0.0762,850.8017,0.3609,3,Inactive
-0.6146,-0.5713,10.0061,10.0412,0.234227,39.3,0.7,98.1,44.6,1.3819,23.8,8.1109,34.71,0.6089,2.1625,24.2567,0.4546,2,Stressed
0.0881,-0.2151,9.6084,9.6112,0.039017,38.75,0.15,56.7,20.6,0.5047,55.0,6.8517,25.9,0.2228,0.8998,48.4729,0.3634,0,Healthy
0.5408,0.0494,9.8056,9.8206,0.058091,38.35,0.25,66.5,24.7,0.5946,59.6,6.4732,27.74,0.273,0.9894,41.2682,0.3712,0,Healthy
-0.0705,0.1137,9.712,9.7129,0.003565,37.73,0.87,114.9,13.5,0.2822,19.2,18.4801,74.14,0.2638,1.3055,200.6853,0.1173,1,Sick
0.1749,-0.1259,9.9175,9.9198,0.036378,38.29,0.31,65.3,20.2,0.4083,51.8,8.2196,35.08,0.2834,1.3452,41.7544,0.3094,0,Healthy
0.2407,-0.0171,10.027,10.0299,0.030909,38.37,0.23,64.5,22.2,0.4748,74.8,6.3646,26.67,0.3413,1.2584,41.0389,0.3451,0,Healthy
-1.31,-0.6089,10.4535,10.5528,0.163337,39.88,1.28,103.1,39.1,2.5625,15.9,10.5728,46.68,0.7322,3.4825,28.1887,0.3795,2,Stressed
0.0087,0.0376,9.8094,9.8095,0.004408,40.65,2.05,117.9,44.5,0.0468,16.6,18.7232,59.35,0.4076,1.6471,163.4992,0.377,1,Sick
-0.0728,-0.0753,9.7485,9.7491,0.002656,40.62,2.02,62.4,7.2,0.2096,14.3,17.1127,88.65,0.3715,1.7274,173.6226,0.1161,1,Sick
-0.0131,0.0116,9.8038,9.8038,0.000143,37.9,0.7,57.2,13.1,0.0309,28.2,3.5864,15.54,0.0148,0.0648,797.9176,0.2297,3,Inactive
0.0079,-0.0019,9.7947,9.7947,0.000113,37.9,0.7,44.2,15.4,0.025,17.2,4.0314,17.78,0.0157,0.0615,772.7541,0.3493,3,Inactive
0.2907,0.0143,9.9897,9.9939,0.081087,38.67,0.07,74.3,29.1,0.4846,50.3,7.0739,33.62,0.2407,0.9236,44.2182,0.3919,0,Healthy
-0.0477,0.1848,10.0958,10.0976,0.346734,39.34,0.74,90.9,40.4,0.5183,27.0,10.8027,51.63,0.5503,2.3051,18.1094,0.4444,2,Stressed
0.0409,0.0309,9.8126,9.8128,9.3e-05,37.86,0.74,50.1,12.2,0.0744,20.0,4.128,14.56,0.0194,0.0846,856.4847,0.2429,3,Inactive
-0.0377,-0.0789,9.8319,9.8323,0.001185,39.87,1.27,72.7,46.8,0.1385,15.9,16.1158,71.22,0.1727,0.8102,174.9906,0.6446,1,Sick
-0.3589,0.4028,10.2778,10.292,0.216393,39.8,1.2,90.3,34.0,1.2295,35.8,6.8583,24.06,0.8143,3.1339,23.8209,0.3764,2,Stressed
0.7833,0.1118,9.6626,9.6949,0.02693,38.64,0.04,55.9,23.4,1.0426,56.9,7.1701,30.12,0.3838,1.3906,48.7291,0.4187,0,Healthy
0.2526,0.0355,9.0571,9.0607,0.160525,39.82,1.22,103.5,46.9,1.041,25.9,10.9353,42.89,0.7167,2.4244,20.1595,0.4525,2,Stressed
0.2296,0.2142,9.7573,9.7624,0.019919,38.83,0.23,68.6,27.5,0.4965,49.7,8.2176,33.86,0.3856,1.2982,54.1248,0.4005,0,Healthy
-0.0013,0.0037,9.8059,9.8059,7.1e-05,37.71,0.89,45.7,14.2,0.0092,17.0,3.7297,15.7,0.0183,0.077,886.7475,0.3095,3,Inactive
0.0586,0.1044,9.8035,9.8043,0.002362,40.75,2.15,94.4,16.1,0.1695,10.6,23.1998,92.61,0.2823,1.3518,192.1982,0.1704,1,Sick
-0.5059,-0.5756,9.8656,9.8953,0.001624,40.92,2.32,106.2,48.6,1.1371,0.4,15.3561,63.68,0.3143,1.1992,186.7791,0.458,1,Sick
0.0903,-0.0689,9.826,9.8266,0.001968,40.89,2.29,85.0,41.6,0.1752,17.1,13.7349,70.78,0.3409,1.4708,202.6182,0.4896,1,Sick
-0.4997,-0.5396,9.9069,9.9342,0.107711,39.16,0.56,90.0,46.7,1.1362,18.5,9.9553,35.15,0.8162,3.2683,28.1723,0.5196,2,Stressed
0.5797,-0.1712,9.8352,9.8537,0.0553,38.5,0.1,63.8,29.3,0.776,67.7,7.9228,36.44,0.3031,1.4734,42.6442,0.4587,0,Healthy
0.0206,-0.0015,9.8072,9.8073,7.2e-05,37.82,0.78,42.7,12.6,0.0248,24.3,4.3676,17.33,0.02,0.0799,1030.5004,0.2951,3,Inactive
-0.1573,-0.3564,9.8141,9.8218,0.017593,38.56,0.04,59.2,19.3,0.5177,62.9,7.7565,33.19,0.2751,1.1632,58.2548,0.3265,0,Healthy
-0.0131,0.0095,9.8093,9.8093,8.6e-05,37.57,1.03,51.4,11.0,0.0233,22.2,3.0935,11.38,0.0143,0.0414,1116.0812,0.2131,3,Inactive
0.0774,0.0794,9.8214,9.8221,0.003277,40.35,1.75,109.5,23.8,0.1683,11.2,18.1559,79.27,0.1956,0.7796,182.3161,0.2174,1,Sick
0.1134,-0.0067,9.7653,9.766,0.002816,40.47,1.87,108.8,38.2,0.1648,14.9,16.4684,62.36,0.4133,1.8249,156.4815,0.3515,1,Sick
0.028,0.0113,9.7987,9.7988,0.000102,37.74,0.86,54.9,12.9,0.0506,21.0,3.7886,18.55,0.0187,0.0659,861.5831,0.2358,3,Inactive
0.0383,0.0284,9.7762,9.7763,0.002047,37.32,1.28,86.3,53.7,0.1005,23.9,17.6438,60.45,0.2978,1.3695,226.7933,0.6217,1,Sick
0.0272,0.018,9.8123,9.8124,5e-05,38.05,0.55,54.6,15.4,0.0476,25.7,4.1253,17.46,0.0183,0.0797,835.3709,0.2815,3,Inactive
0.4106,0.7638,9.5707,9.6099,0.023047,38.64,0.04,64.1,27.3,1.4138,49.6,6.4388,25.83,0.2902,1.1614,43.9681,0.4256,0,Healthy
-0.2621,-0.4419,9.8366,9.85,0.001293,40.72,2.12,100.4,5.5,0.7306,33.9,20.9353,100.83,0.2464,1.0087,187.9385,0.0551,1,Sick
-0.0266,0.3081,9.1767,9.1819,0.109749,39.53,0.93,94.4,46.9,0.968,46.9,8.0166,35.34,0.6255,2.7854,22.3127,0.4965,2,Stressed
0.0341,0.0379,9.6949,9.695,0.00229,40.85,2.25,130.1,5.2,0.1871,11.9,17.5131,68.53,0.3136,1.3046,188.1878,0.0401,1,Sick
-0.0272,-0.0297,9.8837,9.8838,0.003917,40.62,2.02,89.0,37.6,0.1306,36.7,17.9374,68.53,0.2121,1.2179,177.65,0.4227,1,Sick
-0.0199,0.0073,9.7943,9.7943,0.000123,38.42,0.18,46.3,13.7,0.0429,27.1,4.3823,19.46,0.0138,0.0478,1017.7325,0.2959,3,Inactive
-0.7067,-0.1183,9.8964,9.9223,0.123644,39.42,0.82,109.8,42.2,0.9114,28.4,13.2222,48.62,0.6855,2.5557,23.1032,0.3842,2,Stressed
0.136,0.0597,9.8114,9.8125,0.000936,40.71,2.11,97.9,33.7,0.1971,1.0,18.09,76.53,0.2584,1.0254,151.9425,0.3443,1,Sick
-0.2155,0.464,9.0952,9.1096,0.169841,39.51,0.91,106.3,51.2,1.3943,45.2,10.8216,43.08,0.6368,2.2365,22.2483,0.4821,2,Stressed
0.0367,0.0427,9.8117,9.8119,5.6e-05,37.85,0.75,49.9,13.8,0.0811,16.4,3.5173,16.29,0.0177,0.0683,1041.4579,0.2763,3,Inactive
-0.6032,0.497,9.7085,9.7399,0.073224,39.33,0.73,97.9,50.6,1.2017,31.7,8.8552,36.02,0.8312,3.3863,25.4602,0.5174,2,Stressed
-0.0152,0.0058,9.8091,9.8091,0.0001,38.3,0.3,52.8,13.4,0.0219,8.5,3.5647,14.65,0.0177,0.0754,834.89,0.2526,3,Inactive
1.0491,0.7663,10.2165,10.2987,0.369621,38.93,0.33,88.5,41.1,2.2219,15.3,10.9639,48.56,0.6309,2.7403,19.4452,0.4641,2,Stressed
0.0403,-0.0143,9.7992,9.7993,3.8e-05,37.77,0.83,42.2,13.9,0.0655,16.2,4.0939,16.53,0.0184,0.0594,1007.3476,0.3286,3,Inactive
0.3356,0.1273,9.677,9.6837,0.156086,38.93,0.33,95.2,35.0,0.5958,30.3,8.204,33.47,0.521,1.9609,24.2648,0.3675,2,Stressed
0.6184,-0.0624,10.1485,10.1675,0.046386,38.17,0.43,62.8,27.7,1.0192,56.3,6.0435,22.8,0.3333,1.2467,50.0835,0.4407,0,Healthy
0.5412,-0.0989,9.0332,9.0499,0.265031,39.16,0.56,121.5,48.5,1.4169,34.1,9.9562,40.47,0.6124,2.3149,19.0925,0.399,2,Stressed
0.0249,0.0133,9.8053,9.8054,0.000111,37.9,0.7,43.3,11.8,0.043,22.6,4.6551,18.66,0.017,0.0675,866.4834,0.2722,3,Inactive
0.0295,-0.0018,9.802,9.8021,5.6e-05,37.96,0.64,46.8,16.0,0.0392,22.0,4.0496,17.23,0.0119,0.0492,1009.8057,0.3422,3,Inactive
0.0176,0.0188,9.8363,9.8363,8.8e-05,37.99,0.61,47.9,17.8,0.0626,36.9,3.9312,14.72,0.0202,0.1002,870.7842,0.3709,3,Inactive
-0.1755,-0.0314,9.5484,9.5501,0.024074,38.51,0.09,74.3,26.3,0.4684,61.1,6.8872,29.4,0.2817,1.1307,56.0122,0.3535,0,Healthy
-0.0352,0.0282,9.6811,9.6812,0.046778,38.1,0.5,70.8,28.8,0.1922,55.5,8.1387,35.13,0.327,1.2492,53.6754,0.4073,0,Healthy
0.0576,0.0843,9.8951,9.8956,0.001291,40.37,1.77,75.1,44.9,0.2269,0.2,15.7897,60.71,0.1713,0.8328,221.6513,0.5979,1,Sick
0.0375,0.0107,9.808,9.8081,0.000118,37.96,0.64,53.6,12.8,0.0502,23.5,3.6776,16.1,0.0181,0.0689,910.5046,0.2394,3,Inactive
0.0263,0.0257,9.812,9.8121,9e-05,37.8,0.8,43.0,14.9,0.054,20.3,5.1263,20.3,0.016,0.0515,951.7937,0.3472,3,Inactive
-0.1281,-0.0222,9.8586,9.8595,0.078758,38.22,0.38,58.9,20.1,0.1989,72.7,5.6535,22.53,0.3076,1.3292,44.6716,0.3411,0,Healthy
0.2649,0.0649,9.7104,9.7142,0.025309,38.39,0.21,64.5,19.7,0.4294,48.8,5.9431,26.1,0.3285,1.2669,67.2635,0.305,0,Healthy
1.1892,0.4836,10.2699,10.3498,0.139648,39.44,0.84,108.7,29.2,2.1327,36.4,10.1767,42.54,0.8515,4.0182,20.6484,0.2684,2,Stressed
-0.0068,0.0193,9.8165,9.8165,7.4e-05,37.73,0.87,49.5,13.2,0.0326,16.0,3.7385,16.25,0.0169,0.0631,970.6457,0.2663,3,Inactive
0.3736,-0.5005,10.2018,10.2209,0.087746,39.19,0.59,98.3,42.2,1.2659,37.7,10.05,35.41,0.6059,2.174,25.589,0.4294,2,Stressed
-0.0699,-0.0409,9.7722,9.7726,0.003002,40.01,1.41,75.4,54.6,0.1485,10.9,17.8881,63.97,0.3209,1.728,193.5428,0.7242,1,Sick
0.1531,-0.0584,9.7274,9.7288,0.001187,41.03,2.43,95.9,40.3,0.2941,20.3,14.5676,66.53,0.3021,1.1773,189.5363,0.4199,1,Sick
0.0917,0.1362,9.7871,9.7884,0.001045,40.67,2.07,71.7,50.3,0.2508,11.0,19.3994,83.2,0.3743,1.6191,194.9967,0.702,1,Sick
0.1467,0.1444,9.8812,9.8833,0.001353,37.62,0.98,88.2,12.0,0.3623,4.9,22.2885,94.32,0.315,1.5497,192.4999,0.1364,1,Sick
0.2819,0.2777,9.4692,9.4775,0.229199,38.99,0.39,104.4,48.0,0.9003,10.5,12.5057,45.09,0.6181,2.988,19.5862,0.4593,2,Stressed
0.3552,1.2282,9.9391,10.021,0.118312,39.34,0.74,117.5,43.5,1.7124,31.7,8.7663,37.95,0.582,2.2965,22.9547,0.3698,2,Stressed
-0.2258,0.1057,9.4901,9.4934,0.051606,38.71,0.11,65.5,21.8,0.6514,48.9,6.3916,21.77,0.3402,1.5534,48.2606,0.3329,0,Healthy
1.0036,0.2247,9.6862,9.7406,0.036,38.46,0.14,57.8,31.3,1.3522,52.5,7.1452,32.18,0.3272,1.2801,47.6024,0.5421,0,Healthy
-0.3113,-0.0741,9.8132,9.8184,0.011619,38.56,0.04,73.3,25.2,0.3886,78.8,7.5863,29.17,0.2368,0.9255,53.0462,0.3445,0,Healthy
0.2229,0.3405,9.7199,9.7285,0.055642,38.46,0.14,76.4,21.2,0.6535,54.4,6.2811,23.2,0.4166,1.9867,42.4479,0.2768,0,Healthy
0.0299,0.0249,9.8027,9.8027,8.2e-05,37.83,0.77,49.6,14.1,0.0621,21.3,3.9231,16.11,0.0154,0.0674,878.3759,0.2849,3,Inactive
0.0349,0.0319,9.795,9.7951,7.3e-05,38.01,0.59,45.2,12.3,0.0818,34.3,4.243,14.62,0.0209,0.0846,865.0305,0.273,3,Inactive
0.1021,-0.4133,9.686,9.6954,0.068366,38.54,0.06,71.6,15.5,0.6393,63.3,7.2591,31.95,0.3074,1.1599,44.8536,0.2159,0,Healthy
-0.0588,-0.2982,9.8381,9.8428,0.214676,39.93,1.33,86.4,49.4,0.3851,27.7,8.1518,33.44,0.6321,2.4841,21.2039,0.5709,2,Stressed
0.775,0.4025,9.4389,9.4793,0.340842,38.65,0.05,110.4,57.0,1.5486,54.4,11.3942,42.54,0.602,2.1335,19.9939,0.5164,2,Stressed
0.017,-0.0006,9.8173,9.8173,0.000123,38.19,0.41,49.1,11.6,0.0249,22.3,3.8917,19.19,0.0224,0.0901,866.5729,0.2371,3,Inactive
-0.0497,-0.0736,9.5223,9.5227,0.061645,38.58,0.02,66.5,20.8,0.411,59.0,8.0722,31.21,0.3209,1.3171,41.9625,0.3134,0,Healthy
-0.4637,0.007,9.8289,9.8399,0.061391,38.12,0.48,61.8,25.6,0.4896,48.8,8.8038,35.17,0.279,1.0428,50.6473,0.4141,0,Healthy
-0.0515,-0.2861,9.5147,9.5192,0.237548,38.52,0.08,102.6,46.3,0.6329,36.5,10.0348,40.5,0.7358,3.0443,19.1665,0.4509,2,Stressed
0.0308,-0.015,9.8101,9.8101,9.9e-05,38.01,0.59,37.5,13.6,0.0459,16.4,4.2293,19.39,0.0188,0.0642,1004.3415,0.3621,3,Inactive
0.0268,0.002,9.843,9.843,0.002486,40.67,2.07,80.9,39.7,0.0618,20.8,17.2417,80.41,0.3421,1.4538,237.7057,0.4909,1,Sick
0.7354,0.3257,9.6053,9.6389,0.076235,40.0,1.4,93.7,37.0,1.2657,37.5,8.8664,36.02,0.8313,3.3863,25.6181,0.3953,2,Stressed
0.0251,-0.0249,9.8173,9.8174,0.000152,38.31,0.29,53.8,13.5,0.0573,16.8,4.0649,19.19,0.0194,0.078,838.0899,0.2517,3,Inactive
1.2713,0.5438,9.7526,9.8501,0.137594,39.38,0.78,95.9,37.0,1.8726,15.9,8.5114,38.21,0.7064,3.2314,25.8383,0.3856,2,Stressed
-0.6045,0.0811,9.9371,9.9558,0.190801,39.4,0.8,104.4,32.2,0.8127,20.0,9.5644,48.19,0.6416,2.4328,21.3745,0.308,2,Stressed
0.561,0.3448,10.025,10.0466,0.042135,38.65,0.05,66.7,24.8,1.1208,52.9,6.7791,28.54,0.3011,1.216,47.7866,0.3724,0,Healthy
0.0086,-0.0063,9.8112,9.8112,0.000152,37.92,0.68,53.8,13.6,0.0161,16.7,4.3537,16.62,0.017,0.0612,964.4144,0.2523,3,Inactive
0.0414,-0.0007,9.8,9.8001,0.000123,37.86,0.74,44.5,14.0,0.0521,14.2,4.0553,20.77,0.0148,0.0541,916.0646,0.3153,3,Inactive
-0.1541,0.502,10.2006,10.2141,0.054163,38.81,0.21,62.3,27.5,1.0466,52.0,8.4465,40.15,0.3335,1.1576,49.0148,0.441,0,Healthy
0.0759,-0.5712,9.3837,9.4014,0.145378,40.01,1.41,93.7,45.9,1.0734,19.3,7.8409,41.57,0.6694,3.0927,22.1104,0.4894,2,Stressed
-0.1877,-0.6603,9.9196,9.9433,0.233847,39.26,0.66,108.9,35.2,0.9576,22.0,10.1611,40.73,0.6492,2.3149,20.2486,0.323,2,Stressed
0.0357,-0.0604,9.8279,9.8282,0.003938,40.77,2.17,93.7,43.0,0.114,16.1,16.2255,54.35,0.2416,1.0364,189.938,0.4584,1,Sick
-0.069,0.076,9.7649,9.7654,0.00173,40.41,1.81,103.3,7.3,0.1901,8.3,20.6987,78.21,0.3743,1.427,213.8241,0.0706,1,Sick
0.2588,0.4593,9.7987,9.8128,0.173116,39.38,0.78,89.9,33.7,0.7294,12.6,8.9614,37.75,0.6927,3.2352,29.3674,0.3751,2,Stressed
0.8466,0.4818,9.4797,9.5297,0.145512,39.35,0.75,100.1,53.7,1.6587,43.3,8.693,42.33,0.774,3.4062,24.783,0.5359,2,Stressed
0.0181,0.0255,9.8064,9.8064,0.000177,37.93,0.67,49.4,11.4,0.0473,12.8,4.1294,13.59,0.0213,0.0814,787.6154,0.2302,3,Inactive
0.6365,0.8194,9.347,9.4044,0.269657,39.17,0.57,112.6,57.5,1.919,50.1,9.0318,36.99,0.8208,3.6526,21.3348,0.5101,2,Stressed
0.0637,-0.0248,9.8041,9.8043,5.2e-05,37.93,0.67,48.8,14.1,0.0943,22.7,4.4759,18.58,0.0176,0.0745,796.2205,0.2895,3,Inactive
0.0037,0.0213,9.8188,9.8188,5.1e-05,37.56,1.04,48.0,15.2,0.0338,25.3,5.3396,20.87,0.0161,0.0662,770.0525,0.3162,3,Inactive
0.6792,0.4249,10.604,10.6342,0.387588,39.11,0.51,120.5,38.1,1.8982,45.4,12.7046,40.61,0.5988,2.7685,21.7476,0.3167,2,Stressed
0.3699,-0.0847,10.0028,10.01,0.034494,38.32,0.28,41.4,17.2,0.6474,58.0,9.1346,40.15,0.3465,1.2124,53.4701,0.4162,0,Healthy
0.0091,-0.0032,9.8105,9.8105,0.000128,37.92,0.68,48.7,11.8,0.0128,21.2,3.205,11.39,0.0155,0.065,815.0421,0.2416,3,Inactive
-0.0166,0.0032,9.7947,9.7947,5.8e-05,37.86,0.74,48.2,14.1,0.0351,14.4,4.5231,20.58,0.0194,0.0821,1066.9851,0.2929,3,Inactive
0.0702,-0.0516,9.9179,9.9183,0.00388,36.75,1.85,106.0,7.3,0.2296,14.8,14.3927,51.64,0.4204,1.6356,164.4165,0.0686,1,Sick
0.0257,0.006,9.8073,9.8074,0.0001,38.14,0.46,51.6,17.8,0.0344,19.9,4.0393,16.45,0.0155,0.07,838.0477,0.3454,3,Inactive
0.0062,0.0089,9.8196,9.8196,7.7e-05,37.92,0.68,50.0,13.7,0.0246,24.7,4.9068,22.07,0.017,0.0664,917.1024,0.2743,3,Inactive
-0.7429,0.9794,9.888,9.9641,0.18268,39.67,1.07,102.5,42.4,1.8003,52.0,10.891,55.95,0.6233,2.5214,19.995,0.4136,2,Stressed
0.0086,-0.044,9.88,9.8801,0.004137,41.2,2.6,107.8,5.5,0.1227,6.2,16.3661,69.27,0.4194,1.6356,162.1192,0.0507,1,Sick
0.0357,-0.0016,9.7996,9.7997,0.000171,37.79,0.81,39.8,15.2,0.0476,28.6,4.3754,18.17,0.0182,0.0783,751.3329,0.383,3,Inactive
0.4607,-0.1449,10.2067,10.2181,0.044407,38.25,0.35,51.4,21.2,1.0023,52.6,8.405,34.25,0.3573,1.368,46.4145,0.4131,0,Healthy
0.5356,0.3554,9.6106,9.6321,0.040066,38.7,0.1,62.3,20.7,1.0904,72.3,6.5412,31.24,0.3605,1.3367,41.3494,0.3319,0,Healthy
-0.1683,-0.1774,10.0094,10.0123,0.230938,39.78,1.18,86.3,46.0,0.5451,4.5,11.535,43.92,0.6566,2.4244,19.9269,0.5326,2,Stressed
0.1471,-0.4621,9.9015,9.9133,0.021406,38.8,0.2,59.8,24.5,0.7007,54.8,8.4965,35.17,0.2966,1.0428,60.6938,0.4094,0,Healthy
-0.3162,0.2788,9.8306,9.8396,0.030965,38.44,0.16,56.8,25.4,0.6156,54.8,6.2088,24.89,0.3418,1.4536,46.5694,0.4467,0,Healthy
-0.2075,-0.4574,9.9774,9.99,0.21668,39.41,0.81,100.6,39.1,0.8323,39.9,9.8474,45.13,0.7429,3.0495,21.1001,0.3891,2,Stressed
-0.0788,0.3079,9.7646,9.7698,0.044367,38.42,0.18,66.7,36.6,0.432,47.3,7.4078,31.33,0.33,1.2176,54.0882,0.5482,0,Healthy
-0.6857,-0.4856,9.4058,9.4432,0.148658,39.62,1.02,100.6,40.7,1.5755,40.4,12.5057,62.69,0.6921,2.8607,24.6129,0.4041,2,Stressed
0.0165,-0.0131,9.8073,9.8073,4.7e-05,37.68,0.92,57.0,12.4,0.0323,15.4,4.753,18.55,0.0117,0.0436,950.2817,0.2168,3,Inactive
0.0984,0.2002,9.7783,9.7808,0.038161,38.51,0.09,62.2,32.2,0.3303,52.6,7.3635,27.64,0.3204,1.2795,54.0441,0.5182,0,Healthy
0.021,-0.0077,9.8267,9.8267,0.000211,37.8,0.8,52.4,12.9,0.0454,16.3,4.3108,18.54,0.0176,0.0788,802.8758,0.2454,3,Inactive
-0.9772,-0.1153,10.0586,10.1066,0.181098,39.67,1.07,102.3,35.2,1.3412,56.1,8.7745,35.54,0.573,2.4841,19.9243,0.3445,2,Stressed
-0.0502,0.0605,9.8565,9.8569,0.002352,40.58,1.98,102.7,8.2,0.1572,5.4,14.8502,66.53,0.4251,1.8249,212.2671,0.0795,1,Sick
0.0419,0.1477,9.7234,9.7246,0.003811,40.3,1.7,74.4,35.4,0.2761,26.6,17.5551,79.27,0.1992,0.7796,169.7711,0.4755,1,Sick
0.0075,-0.0061,9.8105,9.8105,0.000131,37.85,0.75,48.6,12.7,0.0141,26.1,4.6847,18.74,0.0177,0.0639,941.3172,0.2612,3,Inactive
0.227,-0.197,9.366,9.3709,0.053219,38.48,0.12,53.4,18.7,0.868,65.2,8.5574,34.34,0.2567,0.9491,57.7697,0.3501,0,Healthy
0.0387,0.0373,9.6895,9.6896,0.018516,38.77,0.17,57.4,24.8,0.1965,61.1,5.7569,23.13,0.3252,1.0834,49.6082,0.4331,0,Healthy
0.8594,-0.0462,9.7622,9.8001,0.002,36.3,2.3,100.3,61.5,0.9533,14.1,17.1029,77.64,0.2738,1.1458,186.6199,0.6131,1,Sick
-0.0103,-0.0069,9.8182,9.8183,5.9e-05,38.03,0.57,43.3,13.6,0.0254,19.8,3.9081,14.44,0.0201,0.0826,1042.8053,0.3141,3,Inactive
0.2806,-0.0301,9.5666,9.5708,0.042995,38.63,0.03,64.3,24.8,0.5541,58.0,4.0718,19.11,0.325,1.2122,42.5357,0.3853,0,Healthy
0.1823,-0.0097,9.6526,9.6543,0.043804,38.98,0.38,56.0,28.6,0.3494,56.9,7.3786,30.66,0.2983,1.3171,46.2152,0.5096,0,Healthy
0.3067,-0.4117,9.5691,9.5829,0.159853,39.09,0.49,103.9,39.9,0.9593,32.7,10.2047,42.54,0.8312,4.0182,20.0549,0.3844,2,Stressed
-0.018,-0.0098,9.801,9.801,7.9e-05,37.83,0.77,47.6,15.1,0.0369,20.9,3.8903,14.44,0.0193,0.0826,992.9113,0.3163,3,Inactive
0.4774,-0.1334,9.7224,9.7351,0.275725,39.49,0.89,93.4,44.2,0.6984,11.5,13.1093,53.63,0.8513,3.2939,19.2677,0.4731,2,Stressed
-0.1054,0.1165,10.0213,10.0226,0.035549,38.33,0.27,81.6,24.1,0.4333,62.9,7.6278,30.12,0.3889,1.3906,47.9066,0.2957,0,Healthy
0.6328,1.247,10.4204,10.5139,0.220193,39.3,0.7,97.7,49.3,2.4903,15.6,8.6568,36.11,0.6292,2.6749,24.8927,0.5044,2,Stressed
0.0097,-0.0211,9.8118,9.8118,0.000187,38.19,0.41,46.3,16.4,0.0326,32.6,4.1014,13.59,0.0201,0.0814,800.6315,0.3541,3,Inactive
0.0876,0.3334,10.5158,10.5215,0.089357,38.98,0.38,79.2,28.8,1.1268,62.7,6.1142,29.79,0.2747,1.141,42.4333,0.3636,0,Healthy
-0.2092,-0.2524,9.5049,9.5106,0.303697,39.19,0.59,83.3,45.9,0.7666,17.0,10.1094,36.77,0.8662,3.4825,20.7679,0.5506,2,Stressed
1.3401,0.7765,9.2114,9.3407,0.194952,39.18,0.58,102.9,38.9,2.7152,24.7,8.3301,31.38,0.5831,2.3813,24.0047,0.3782,2,Stressed
0.0242,-0.0864,9.9594,9.9598,0.025636,38.85,0.25,63.9,28.6,0.2599,38.1,7.6563,32.75,0.2666,0.9319,46.3867,0.4473,0,Healthy
0.1771,0.0209,9.9013,9.9029,0.036897,38.4,0.2,55.3,31.0,0.2893,65.1,4.8623,23.53,0.3078,1.2122,45.9815,0.5609,0,Healthy
0.0058,0.1739,9.7787,9.7803,0.002909,39.69,1.09,109.3,8.8,0.2109,17.5,18.5997,67.49,0.2889,1.4051,183.4656,0.0807,1,Sick
0.0117,0.0143,9.7945,9.7945,0.000231,38.3,0.3,48.8,15.2,0.0416,32.2,3.8818,16.23,0.0187,0.0662,815.0262,0.3118,3,Inactive
2.3944,0.5298,10.638,10.917,0.206609,39.37,0.77,97.9,42.0,3.7522,19.6,8.7822,39.05,0.7531,3.1328,21.5439,0.4286,2,Stressed
0.0849,0.3534,9.5844,9.5913,0.033141,38.59,0.01,61.4,17.5,0.6639,42.9,6.5214,27.97,0.3366,1.3473,49.6217,0.2851,0,Healthy
-0.0999,0.2839,9.7004,9.7051,0.055777,38.17,0.43,64.1,24.8,0.4933,69.4,5.679,22.34,0.3285,1.1778,50.7435,0.3861,0,Healthy
0.0334,0.0292,9.7356,9.7357,0.003016,40.84,2.24,79.2,49.0,0.137,20.0,14.7932,63.42,0.1919,0.6982,163.4863,0.6191,1,Sick
0.6956,-0.1384,10.1788,10.2035,0.175748,39.4,0.8,86.9,41.0,1.2028,33.7,10.1866,40.81,0.7246,2.6299,22.3097,0.4711,2,Stressed
0.1771,-0.019,9.9668,9.9684,0.0056,40.6,2.0,96.2,7.0,0.3529,16.7,19.6791,75.58,0.5237,1.6471,150.3004,0.0724,1,Sick
0.0227,-0.0101,9.8344,9.8344,0.000112,37.87,0.73,44.3,12.4,0.0572,13.2,3.9081,14.44,0.0189,0.0826,915.174,0.2808,3,Inactive
0.3239,0.3529,9.7579,9.7697,0.018073,38.64,0.04,71.4,21.5,0.7289,42.7,6.8697,29.84,0.2899,1.2454,57.9208,0.3017,0,Healthy
0.573,0.7632,9.7375,9.7842,0.154837,38.83,0.23,97.5,43.8,1.4087,41.7,10.6532,37.55,0.706,2.6776,19.8883,0.4491,2,Stressed
0.01,-0.0024,9.7992,9.7992,0.00017,38.22,0.38,54.2,11.8,0.0232,12.2,4.6561,22.33,0.0189,0.0814,790.5821,0.2176,3,Inactive
0.0972,-0.073,9.7004,9.7012,0.005608,40.81,2.21,89.7,42.8,0.2798,21.1,14.6801,50.98,0.2333,1.0331,179.3789,0.4773,1,Sick
0.2296,0.1041,9.8073,9.8106,0.029359,38.4,0.2,61.4,23.9,0.3364,49.2,7.9737,30.98,0.4127,1.8306,45.9493,0.3901,0,Healthy
0.9666,0.0594,9.7166,9.7648,0.029221,38.8,0.2,68.7,19.3,1.1194,61.8,6.6358,22.34,0.3441,1.4899,46.0183,0.2806,0,Healthy
0.3419,0.2276,9.5569,9.5658,0.052706,38.75,0.15,71.8,20.7,0.8225,64.4,6.688,31.86,0.317,1.5809,57.6412,0.2889,0,Healthy
0.0855,0.0606,9.7685,9.769,0.001454,39.92,1.32,71.5,15.2,0.1876,25.4,19.8033,83.07,0.3877,1.4755,297.2197,0.2129,1,Sick
0.2881,-0.4127,9.867,9.8798,0.035316,38.73,0.13,67.1,23.4,0.7578,51.6,7.9332,33.61,0.2735,1.068,48.9987,0.3488,0,Healthy
0.3236,-0.2052,9.9558,9.9632,0.052929,38.69,0.09,52.6,26.0,0.6746,57.0,6.2648,27.74,0.262,0.9894,40.6877,0.4949,0,Healthy
0.1597,-0.0609,9.5747,9.5762,0.019313,38.55,0.05,65.1,28.3,0.456,59.7,6.6769,22.99,0.2362,1.0418,48.2395,0.4351,0,Healthy
0.0161,0.0312,9.8145,9.8145,0.000123,37.85,0.75,49.6,11.6,0.0517,36.0,4.2122,17.02,0.0169,0.0634,967.978,0.234,3,Inactive
0.7027,-0.3232,9.7349,9.7656,0.001298,41.17,2.57,94.3,12.7,1.101,12.8,17.3448,75.64,0.2637,1.0201,162.5021,0.1352,1,Sick
-0.6613,-1.1011,9.6721,9.757,0.063581,39.72,1.12,95.3,34.9,1.9003,35.8,10.8516,44.34,0.6976,2.9172,26.7431,0.3661,2,Stressed
0.025,0.0552,9.8881,9.8883,0.003134,40.3,1.7,110.9,15.5,0.1583,7.1,16.9731,83.39,0.2764,1.4376,187.121,0.1393,1,Sick
-0.3416,0.4814,9.8821,9.8997,0.013213,38.66,0.06,69.8,24.9,0.8951,54.5,5.5051,19.66,0.3094,1.2975,46.0499,0.3562,0,Healthy
0.6982,0.0019,9.7327,9.7577,0.050748,38.44,0.16,62.9,23.9,0.7774,50.4,6.7508,38.37,0.3838,1.6401,50.929,0.3794,0,Healthy
0.0088,0.0121,9.8002,9.8002,5.6e-05,37.98,0.62,47.7,12.4,0.0308,22.9,3.6446,14.41,0.0207,0.0871,781.4713,0.2611,3,Inactive
0.666,0.0673,9.5528,9.5762,0.065733,39.17,0.57,91.4,27.8,0.9905,34.9,9.2819,40.47,0.4705,2.0858,26.8117,0.3047,2,Stressed
0.3744,0.4829,9.7642,9.7833,0.051035,39.23,0.63,98.6,36.0,0.9031,20.2,10.2358,40.78,0.8443,3.0721,28.642,0.3647,2,Stressed
0.021,0.0067,9.8064,9.8064,0.00017,37.76,0.84,44.7,14.5,0.0313,23.2,4.5208,18.54,0.0189,0.0819,859.4502,0.3238,3,Inactive
-0.1988,0.3044,9.6345,9.6414,0.081589,38.74,0.14,70.0,17.5,0.6787,57.6,6.628,25.88,0.3136,1.4581,38.4604,0.2505,0,Healthy
0.0707,-0.275,9.9924,9.9965,0.312292,38.99,0.39,104.6,49.1,0.5282,33.0,10.1456,35.02,0.6602,2.8979,20.4924,0.4691,2,Stressed
0.8596,0.2738,9.9739,10.0146,0.032904,38.78,0.18,70.6,24.6,1.2973,56.6,7.2108,26.23,0.4124,1.8306,43.676,0.3482,0,Healthy
0.5992,-0.0707,9.5824,9.6014,0.261295,39.31,0.71,105.3,50.3,0.8975,26.5,9.4516,42.01,0.7865,3.8237,19.7966,0.4774,2,Stressed
0.358,0.0601,9.801,9.8077,0.020527,38.75,0.15,68.6,25.9,0.4271,50.7,6.9027,33.62,0.2511,0.8607,55.2467,0.3778,0,Healthy
-0.4139,-0.8496,9.5302,9.5769,0.26571,39.36,0.76,119.9,52.3,1.5433,22.3,11.7989,57.11,0.7491,3.7589,22.2173,0.4366,2,Stressed
0.113,0.2166,9.6141,9.6172,0.038793,38.63,0.03,68.4,32.8,0.5255,54.0,6.6652,28.27,0.2857,1.1043,41.2107,0.4797,0,Healthy
-0.0423,0.3083,10.0678,10.0726,0.022221,38.78,0.18,60.3,20.3,0.6083,71.5,6.6739,25.33,0.3183,1.2871,48.8722,0.3374,0,Healthy
-0.1292,0.523,9.6485,9.6635,0.059753,38.48,0.12,68.7,31.2,0.8137,54.7,7.2713,25.71,0.2754,1.1011,41.8169,0.4544,0,Healthy
0.0064,-0.0126,9.8034,9.8034,6.6e-05,37.84,0.76,43.0,13.0,0.0257,21.6,3.1049,10.91,0.0169,0.0767,874.4767,0.302,3,Inactive
-0.8706,0.2626,9.5674,9.6105,0.112567,39.27,0.67,97.5,40.7,1.3757,30.3,9.8685,35.15,0.7582,3.2683,28.0169,0.4179,2,Stressed
-0.1186,-0.0347,9.764,9.7648,0.001162,40.52,1.92,86.4,49.9,0.1994,40.4,21.0004,100.83,0.2315,1.0087,186.3986,0.5778,1,Sick
0.5657,0.5131,9.7243,9.7543,0.046654,38.34,0.26,58.3,23.4,1.1645,60.5,7.5706,31.33,0.3551,1.1494,47.5375,0.402,0,Healthy
-0.119,0.036,9.8409,9.8417,0.001788,40.44,1.84,92.3,53.3,0.1858,13.5,20.4852,74.14,0.1068,0.4265,184.6216,0.5772,1,Sick
0.4211,0.4754,9.366,9.3875,0.094026,39.0,0.4,115.3,38.2,1.3406,33.7,7.0103,27.83,0.7132,2.9761,23.8848,0.3314,2,Stressed
0.0898,-0.0199,9.8885,9.8889,0.002598,40.21,1.61,81.8,25.4,0.1881,7.0,17.4079,77.64,0.2801,1.1458,185.3791,0.3105,1,Sick
0.0031,-0.0014,9.8183,9.8183,0.000136,38.0,0.6,46.1,16.4,0.0128,22.6,3.7736,14.71,0.014,0.0566,853.1295,0.3553,3,Inactive
1.2217,-0.0413,10.0686,10.1425,0.172373,39.3,0.7,86.4,38.6,1.5216,36.1,10.3045,42.88,0.7555,2.7634,23.9922,0.4466,2,Stressed
0.0138,0.0296,9.8272,9.8273,5.8e-05,37.58,1.02,42.2,14.5,0.0607,18.0,3.4582,14.65,0.0178,0.0754,847.2331,0.343,3,Inactive
-0.0531,-0.6628,10.1636,10.1854,0.033426,38.8,0.2,57.6,20.1,1.0696,42.1,5.1717,21.93,0.2827,1.0586,60.2523,0.3487,0,Healthy
0.0307,0.001,9.8156,9.8156,0.000144,37.85,0.75,48.6,14.0,0.0373,33.0,4.6032,17.57,0.0175,0.0634,972.2172,0.2892,3,Inactive
0.0071,0.0114,9.8095,9.8095,0.000151,37.97,0.63,51.1,10.5,0.019,10.4,4.2151,17.86,0.0162,0.0674,826.1693,0.2054,3,Inactive
-0.0071,0.0082,9.7985,9.7985,0.000124,37.57,1.03,49.8,14.1,0.0268,15.5,4.7368,20.36,0.0197,0.0845,867.9506,0.2828,3,Inactive
0.068,-0.2099,10.1401,10.1425,0.060194,39.05,0.45,65.1,25.5,0.608,53.1,6.8015,33.34,0.2884,1.0689,39.6946,0.3923,0,Healthy
0.3176,0.1091,10.0116,10.0172,0.166877,39.41,0.81,94.4,33.0,0.6283,32.7,8.9532,38.3,0.7306,2.5635,21.8957,0.3499,2,Stressed
0.0394,-0.0305,9.8334,9.8335,0.001797,36.68,1.92,87.1,52.7,0.0934,12.2,17.73,70.78,0.3005,1.4051,197.9591,0.605,1,Sick
-0.0155,0.1388,9.8086,9.8096,0.001484,40.57,1.97,79.1,10.6,0.1557,11.7,20.4799,89.67,0.3493,1.4507,186.056,0.1335,1,Sick
-0.033,-0.0128,10.1734,10.1734,0.0293,38.48,0.12,60.2,22.6,0.4092,62.4,8.3138,38.33,0.3206,1.1068,50.9877,0.3757,0,Healthy
0.0514,-0.0357,9.8587,9.8589,0.002195,40.41,1.81,89.9,12.9,0.1358,1.8,16.4721,83.18,0.2119,1.2058,217.7969,0.1431,1,Sick
0.1898,-0.0374,9.8196,9.8215,0.025181,38.63,0.03,70.5,24.6,0.2368,77.0,6.3493,22.19,0.2881,1.1053,43.7494,0.3498,0,Healthy
0.0042,0.0502,9.7354,9.7355,0.001481,40.63,2.03,91.9,54.2,0.129,2.1,19.8155,92.85,0.2194,1.1762,266.884,0.5898,1,Sick
-0.0066,-0.0045,9.7357,9.7357,0.002482,40.54,1.94,120.7,13.0,0.0854,13.1,18.0263,82.67,0.3416,1.4538,227.4071,0.1078,1,Sick
0.2268,-0.0734,9.9419,9.9448,0.038531,39.01,0.41,58.1,28.2,0.4321,64.2,6.5824,29.04,0.264,0.971,56.9476,0.4852,0,Healthy
0.0448,0.7048,10.6426,10.666,0.215913,39.84,1.24,100.6,44.6,1.5822,24.2,8.9556,41.25,0.6693,2.8346,21.2269,0.4437,2,Stressed
0.0266,0.0059,9.8068,9.8068,0.000147,37.69,0.91,41.2,15.6,0.0358,5.5,3.2432,13.21,0.017,0.0571,819.0279,0.3776,3,Inactive
-0.1045,0.0892,9.8413,9.8422,0.003303,40.17,1.57,99.2,14.6,0.225,9.5,21.6127,71.79,0.1798,0.9558,188.3001,0.1469,1,Sick
-0.0335,0.0221,9.8211,9.8211,0.00013,37.93,0.67,47.4,15.0,0.0667,18.5,4.1739,18.05,0.0186,0.0855,992.6349,0.316,3,Inactive
0.4137,0.2464,9.7713,9.7831,0.021617,38.49,0.11,72.9,19.5,0.6989,54.5,7.5009,29.84,0.2946,1.2454,60.0181,0.2672,0,Healthy
0.3035,-0.0792,9.766,9.771,0.014856,38.11,0.49,71.3,22.1,0.4267,55.8,6.6649,21.33,0.3334,1.5061,55.5592,0.3101,0,Healthy
-0.0922,0.026,10.3309,10.3313,0.21726,39.33,0.73,98.5,46.5,0.639,59.9,10.0899,40.47,0.6448,2.3149,20.6145,0.4721,2,Stressed
0.314,-0.3663,9.6771,9.6891,0.04699,38.33,0.27,48.3,23.7,0.8132,58.1,7.0246,28.75,0.2851,1.1452,45.3529,0.4904,0,Healthy
0.206,0.1392,9.8974,9.9005,0.284364,39.63,1.03,97.1,53.3,0.4326,0.0,8.9222,34.12,0.8341,4.0182,17.9254,0.5493,2,Stressed
0.0131,0.0551,9.568,9.5681,0.033053,38.87,0.27,67.9,23.2,0.3102,65.5,6.1674,26.65,0.3694,1.4394,43.3916,0.3408,0,Healthy
-0.7113,0.704,9.7042,9.7557,0.080716,39.07,0.47,110.3,49.3,1.5211,24.2,11.3767,44.34,0.7024,2.9172,24.7841,0.4472,2,Stressed
0.547,-0.1147,10.3244,10.3395,0.062584,38.45,0.15,71.7,15.1,1.1761,67.3,7.0349,31.95,0.3031,1.1599,43.0076,0.2111,0,Healthy
0.4737,-0.0314,9.7047,9.7163,0.029231,38.68,0.08,65.0,24.7,0.6104,57.9,6.8922,30.12,0.3385,1.4362,47.6412,0.3793,0,Healthy
0.4482,0.0452,9.9766,9.9868,0.039687,38.46,0.14,58.8,28.2,0.66,46.2,7.6331,37.75,0.2904,1.1068,51.6522,0.4799,0,Healthy
0.0711,0.1138,9.7704,9.7714,0.003767,40.64,2.04,96.2,47.5,0.2245,10.3,15.4808,53.83,0.2118,1.2476,155.0854,0.4936,1,Sick
-0.1256,0.0919,9.8022,9.8034,0.069214,38.6,0.0,58.2,21.6,0.2253,55.3,7.4006,31.21,0.2896,1.2377,40.6853,0.3703,0,Healthy
1.1231,0.6462,9.9907,10.0744,0.0979,38.93,0.33,105.7,37.5,1.95,42.0,8.8883,36.02,0.8296,3.3863,26.1761,0.3548,2,Stressed
-0.006,-0.0018,9.825,9.825,0.000168,38.08,0.52,45.5,16.5,0.0228,13.4,4.3659,20.33,0.0176,0.0626,1029.5418,0.3617,3,Inactive
0.9758,0.3533,9.9578,10.0117,0.311059,39.39,0.79,92.7,38.6,1.4769,25.3,9.9172,51.63,0.571,2.3051,18.5763,0.4167,2,Stressed
0.0209,0.4822,10.405,10.4162,0.21922,39.92,1.32,98.1,47.0,1.0981,28.1,9.902,41.69,0.511,2.1448,18.0459,0.4786,2,Stressed
0.7885,0.3143,9.3534,9.3919,0.231601,39.39,0.79,86.7,42.9,1.5594,31.1,11.6086,44.59,0.8037,2.6959,20.3371,0.4944,2,Stressed
-0.0078,0.0166,9.8062,9.8062,8e-05,37.47,1.13,41.8,17.8,0.0281,23.2,3.8988,15.37,0.0152,0.0622,913.7274,0.4269,3,Inactive
0.3877,-0.8853,9.7757,9.8234,0.074048,39.21,0.61,96.9,31.7,1.3073,40.1,10.307,36.06,0.596,2.174,24.0128,0.3274,2,Stressed
0.0245,0.014,9.8052,9.8053,6.4e-05,37.97,0.63,47.9,11.3,0.0433,26.5,3.9242,18.45,0.0122,0.0575,1104.6157,0.2351,3,Inactive
0.0255,0.0224,9.8207,9.8208,9.5e-05,37.31,1.29,53.2,14.2,0.0586,31.3,3.8737,13.46,0.0167,0.0621,898.7832,0.2663,3,Inactive
-0.0702,-0.0775,9.8838,9.8844,0.040805,38.76,0.16,55.7,28.9,0.2215,60.0,8.0621,32.52,0.257,1.0028,48.4015,0.5179,0,Healthy
-0.2367,0.1607,9.5716,9.5759,0.035414,38.74,0.14,61.1,20.5,0.6358,63.7,5.9362,23.05,0.278,1.0475,44.1923,0.3361,0,Healthy
-0.031,0.0192,9.7985,9.7985,0.000226,37.95,0.65,53.2,14.8,0.0617,19.3,3.944,16.61,0.0178,0.0681,828.228,0.2776,3,Inactive
0.0338,0.0446,9.728,9.7282,0.06558,38.8,0.2,59.7,23.4,0.1604,61.3,5.1465,23.24,0.3441,1.1778,43.9084,0.3919,0,Healthy
-0.2099,-0.4481,10.0649,10.077,0.045074,38.75,0.15,66.1,22.8,0.9129,52.1,6.9569,27.84,0.2682,0.9342,48.7381,0.3455,0,Healthy
1.3284,0.7215,9.7327,9.8494,0.300751,39.65,1.05,112.6,41.3,2.1271,40.8,7.7192,35.04,0.7838,2.9761,22.1996,0.3667,2,Stressed
-0.0165,0.0099,9.8126,9.8126,0.001011,40.43,1.83,127.3,10.6,0.029,19.6,22.3707,73.76,0.1641,0.9461,258.0651,0.0835,1,Sick
0.4656,0.3218,9.7801,9.7965,0.02259,38.71,0.11,79.1,20.3,0.8173,56.1,7.1265,28.27,0.2874,1.1043,44.001,0.2561,0,Healthy
0.0408,0.0007,9.8116,9.8117,,37.92,0.68,47.2,11.2,0.043,23.7,,0.0,,0.0,4905.8277,0.2382,3,Inactive
